timestamp,gyrX,gyrY,gyrZ
221000,-91.370,-92.224,24.902
221010,-91.370,-92.224,24.902
221020,-92.834,-83.984,21.301
221100,-92.834,-83.984,21.301
221110,-92.834,-83.984,21.301
221120,-92.957,-71.045,17.334
221201,-92.957,-71.045,17.334
221211,-92.957,-55.420,12.268
221221,-88.745,-56.152,12.268
222001,-88.745,-56.152,12.268
222011,-80.383,-41.260,5.493
222022,-80.383,-41.260,5.493
222102,-80.383,-41.260,5.493
222112,-71.472,-27.344,-1.343
222122,-71.472,-27.344,-1.343
222210,-63.660,-15.320,-6.287
222220,-63.660,-15.320,-6.287
1000000,-63.660,-15.320,-6.287
1000010,-58.228,-6.958,-9.949
1000021,-58.228,-6.958,-9.949
1000101,-58.228,-3.296,-11.414
1000111,-55.237,-3.296,-11.414
1000121,-55.237,-3.296,-11.414
1000202,-53.101,-2.625,-10.803
1000212,-53.101,-2.625,-10.803
1000222,-53.101,-2.625,-10.803
1001010,-49.805,-3.357,-9.338
1001020,-49.805,-3.357,-9.338
1001100,-44.373,-4.333,-7.996
1001110,-44.373,-4.333,-7.996
1001121,-44.373,-4.333,-7.996
1001201,-36.621,-4.944,-6.409
1001211,-36.621,-4.944,-6.409
1001221,-27.893,-4.517,-4.028
1002001,-27.893,-4.517,-4.028
1002012,-27.893,-4.517,-4.028
1002022,-18.250,-3.967,-2.319
1002102,-18.250,-3.967,-2.319
1002120,-2.625,-4.272,-1.587
1002200,-8.057,-4.272,-1.587
1002210,-8.057,-4.272,-1.587
1002220,0.732,-5.249,-1.831
1010001,0.732,-5.249,-1.831
1010011,0.732,-5.249,-1.831
1010021,7.996,-5.371,-2.197
1010101,7.996,-5.371,-2.197
1010111,14.343,-3.601,-2.869
1010121,14.343,-3.601,-2.869
1010202,14.343,-3.601,-2.869
1010212,20.203,-0.916,-3.723
1010222,20.203,-0.916,-3.723
1011002,20.203,-0.916,-4.944
1011012,26.550,1.160,-4.944
1011022,26.550,1.160,-4.944
1011102,32.166,2.136,-6.653
1011120,32.166,2.136,-6.653
1011200,32.166,2.136,-6.653
1011210,38.818,2.380,-7.324
1011220,38.818,2.380,-7.324
1012000,38.818,2.380,-7.324
1012010,44.983,2.319,-6.897
1012020,44.983,2.319,-6.897
1012100,60.608,3.601,-5.493
1012110,49.805,3.601,-5.493
1012120,49.805,3.601,-5.493
1012200,55.115,7.690,-3.235
1012210,55.115,7.690,-3.235
1012220,55.115,7.690,-3.235
1020000,62.927,13.184,-2.502
1020011,62.927,13.184,-2.502
1020021,62.927,13.184,-2.502
1020101,72.083,18.433,-3.235
1020111,72.083,18.433,-3.235
1020121,80.688,23.315,-5.310
1020201,80.688,23.315,-5.310
1020211,80.688,23.315,-5.310
1020221,90.271,27.527,-6.714
1021001,90.271,27.527,-6.714
1021011,90.271,27.527,-6.714
1021021,101.501,31.372,-7.446
1021102,101.501,31.372,-7.446
1021112,101.501,34.241,-7.996
1021122,112.183,34.241,-7.996
1021202,112.183,34.241,-7.996
1021212,121.887,34.790,-7.690
1021222,121.887,34.790,-7.690
1022002,121.887,34.790,-7.690
1022012,132.080,32.532,-6.470
1022022,132.080,32.532,-6.470
1022102,132.080,32.532,-6.470
1022112,141.907,28.015,-4.211
1022122,141.907,28.015,-4.211
1022202,148.254,22.461,-2.258
1022220,148.254,22.461,-2.258
1100000,148.254,22.461,-2.258
1100010,150.635,17.761,-1.160
1100020,150.635,17.761,-1.160
1100100,150.635,17.761,-1.160
1100110,151.367,16.113,-1.465
1100120,151.367,16.113,-1.465
1100200,151.367,18.188,-3.967
1100210,149.353,18.188,-3.967
1100221,149.353,18.188,-3.967
1101001,142.761,23.132,-8.789
1101011,142.761,23.132,-8.789
1101021,142.761,23.132,-8.789
1101101,135.132,32.532,-16.113
1101111,135.132,32.532,-16.113
1101121,135.132,32.532,-16.113
1101201,128.296,45.837,-26.794
1101211,128.296,45.837,-26.794
1101221,122.253,57.983,-38.452
1102001,122.253,57.983,-38.452
1102011,122.253,57.983,-38.452
1102022,115.540,66.101,-48.279
1102102,115.540,66.101,-48.279
1102112,115.540,66.101,-48.279
1102122,107.483,71.045,-53.833
1102202,107.483,71.045,-53.833
1102212,107.483,73.486,-54.138
1102222,99.609,73.486,-54.138
1110002,99.609,73.486,-54.138
1110012,95.459,72.388,-50.293
1110022,95.459,72.388,-50.293
1110102,95.459,72.388,-50.293
1110120,93.567,69.275,-44.739
1110200,93.567,69.275,-44.739
1110210,93.567,69.275,-44.739
1110220,91.675,65.552,-38.757
1111000,91.675,65.552,-38.757
1111010,88.135,60.242,-32.227
1111020,88.135,60.242,-32.227
1111100,88.135,60.242,-32.227
1111110,82.275,54.260,-26.428
1111120,82.275,54.260,-26.428
1111201,82.275,54.260,-26.428
1111211,74.951,51.208,-22.278
1111221,74.951,51.208,-22.278
1112001,66.467,49.805,-19.592
1112011,66.467,49.805,-19.592
1112021,66.467,49.805,-19.592
1112101,58.044,47.852,-17.700
1112111,58.044,47.852,-17.700
1112121,58.044,47.852,-17.700
1112201,48.706,45.471,-15.625
1112211,48.706,45.471,-15.625
1112221,48.706,45.471,-12.939
1120001,39.185,43.213,-12.939
1120012,39.185,43.213,-12.939
1120022,31.494,39.917,-10.193
1120102,31.494,39.917,-10.193
1120112,31.494,39.917,-10.193
1120122,26.184,35.278,-6.714
1120202,26.184,35.278,-6.714
1120212,26.184,35.278,-6.714
1120222,21.667,32.898,-2.075
1121002,21.667,32.898,-2.075
1121020,17.151,33.691,4.028
1121100,17.151,33.691,4.028
1121110,17.151,33.691,4.028
1121120,13.916,35.828,10.193
1121200,13.916,35.828,10.193
1121210,13.916,35.828,10.193
1121220,11.841,36.621,14.160
1121222,11.841,36.621,14.160
1122002,11.841,36.621,14.160
1122012,9.399,36.133,15.259
1122022,9.399,36.133,15.259
1122110,9.399,36.133,13.916
1122112,6.409,35.461,13.916
1122122,6.409,35.461,13.916
1122202,4.211,34.363,11.292
1122220,4.211,34.363,11.292
1122222,4.211,34.363,11.292
1200002,3.296,32.654,9.338
1200020,3.296,32.654,9.338
1200022,3.296,32.654,9.338
1200102,1.526,31.677,9.094
1200120,1.526,31.677,9.094
1200122,1.526,31.677,9.094
1200210,-0.977,31.677,9.705
1200220,-0.977,31.677,9.705
1201000,-0.977,31.738,9.644
1201010,-3.540,31.738,9.644
1201020,-3.540,31.738,9.644
1201100,-4.944,30.640,7.935
1201110,-4.944,30.640,7.935
1201120,-4.944,30.640,7.935
1201200,-6.104,27.954,4.944
1201210,-6.104,27.954,4.944
1201221,-6.104,27.954,0.854
1202001,-8.240,24.902,0.854
1202011,-8.240,24.902,0.854
1202021,-10.864,22.644,-2.197
1202101,-10.864,22.644,-2.197
1202111,-10.864,22.644,-2.197
1202122,-13.855,21.301,-4.272
1202202,-13.855,21.301,-4.272
1202212,-13.855,20.020,-6.287
1202222,-17.456,20.020,-6.287
1210002,-17.456,20.020,-6.287
1210012,-21.790,18.738,-7.568
1210100,-21.790,18.738,-7.568
1210110,-21.790,18.738,-7.568
1210120,-27.588,18.555,-7.202
1210200,-27.588,18.555,-7.202
1210210,-34.851,19.043,-5.432
1210220,-34.851,19.043,-5.432
1211001,-34.851,19.043,-5.432
1211011,-41.748,19.226,-3.418
1211021,-41.748,19.226,-3.418
1211101,-41.748,19.226,-3.418
1211111,-48.035,18.188,-2.563
1211121,-48.035,18.188,-2.563
1211202,-53.711,16.113,-2.319
1211212,-53.711,16.113,-2.319
1211222,-53.711,16.113,-2.319
1212002,-59.387,14.160,-2.197
1212012,-59.387,14.160,-2.197
1212100,-59.387,14.160,-2.014
1212110,-64.636,12.939,-2.014
1212120,-64.636,12.939,-2.014
1212200,-68.726,11.414,-1.709
1212210,-68.726,11.414,-1.709
1212221,-68.726,11.414,-1.709
1220001,-73.120,8.850,-0.854
1220011,-73.120,8.850,-0.854
1220021,-73.120,5.066,1.831
1220101,-77.393,5.066,1.831
1220111,-77.393,5.066,1.831
1220121,-81.970,-0.671,6.348
1220201,-81.970,-0.671,6.348
1220211,-81.970,-0.671,6.348
1220222,-86.487,-7.874,13.916
1221002,-86.487,-7.874,13.916
1221012,-86.487,-17.151,24.353
1221022,-91.614,-17.151,24.353
1221102,-91.614,-17.151,24.353
1221120,-96.802,-28.625,33.264
1221200,-96.802,-28.625,33.264
1221210,-96.802,-28.625,33.264
1221220,-100.708,-41.931,37.476
1222001,-100.708,-41.931,37.476
1222011,-103.699,-55.054,36.621
1222021,-103.699,-55.054,36.621
1222101,-103.699,-55.054,36.621
1222111,-105.103,-64.575,35.339
1222121,-105.103,-64.575,35.339
1222202,-105.103,-64.575,35.339
1222212,-106.384,-69.275,36.255
1222222,-106.384,-69.275,36.255
2000002,-108.948,-70.923,36.255
2000012,-108.948,-70.923,36.255
2000022,-108.948,-70.923,36.255
2000110,-109.802,-71.411,33.264
2000120,-109.802,-71.411,33.264
2000200,-109.802,-71.411,25.513
2000210,-109.192,-72.571,25.513
2000220,-109.192,-72.571,25.513
2001000,-108.521,-72.510,15.320
2001011,-108.521,-72.510,15.320
2001021,-108.521,-72.510,15.320
2001101,-112.000,-67.139,6.165
2001111,-112.000,-67.139,6.165
2001121,-117.859,-56.702,1.221
2001202,-117.859,-56.702,1.221
2001212,-117.859,-56.702,1.221
2001222,-122.681,-49.866,2.869
2002002,-122.681,-49.866,2.869
2002012,-122.681,-49.866,2.869
2002100,-123.901,-52.917,10.803
2002110,-123.901,-52.917,10.803
2002120,-119.507,-68.054,24.475
2002200,-119.507,-68.054,24.475
2002210,-119.507,-68.054,24.475
2002221,-114.319,-92.590,39.124
2010001,-114.319,-92.590,39.124
2010011,-114.319,-123.840,45.898
2010021,-104.492,-115.417,45.898
2010101,-104.492,-115.417,45.898
2010112,-102.905,-129.089,48.218
2010122,-102.905,-129.089,48.218
2010202,-102.905,-129.089,48.218
2010212,-106.201,-127.686,45.410
2010222,-106.201,-127.686,45.410
2011002,-106.201,-117.126,39.368
2011012,-117.065,-117.126,39.368
2011100,-117.065,-117.126,39.368
2011110,-126.160,-105.347,29.724
2011120,-126.160,-105.347,29.724
2011200,-126.160,-105.347,29.724
2011210,-132.996,-95.398,17.334
2011221,-132.996,-95.398,17.334
2012001,-137.268,-90.332,12.756
2012011,-137.268,-90.332,12.756
2012021,-137.268,-90.332,12.756
2012101,-137.695,-95.337,16.479
2012111,-137.695,-95.337,16.479
2012122,-137.695,-95.337,16.479
2012202,-134.460,-106.689,25.452
2012212,-134.460,-106.689,25.452
2012222,-126.953,-118.713,35.278
2020002,-126.953,-118.713,35.278
2020012,-126.953,-118.713,35.278
2020100,-118.835,-123.535,40.039
2020110,-118.835,-123.535,40.039
2020120,-118.835,-123.535,37.415
2020200,-113.647,-115.845,37.415
2020210,-113.647,-115.845,37.415
2020221,-110.046,-97.229,30.457
2021001,-110.046,-97.229,30.457
2021011,-110.046,-97.229,30.457
2021021,-105.896,-74.402,21.790
2021101,-105.896,-74.402,21.790
2021112,-105.896,-53.772,13.489
2021122,-100.403,-53.772,13.489
2021202,-100.403,-53.772,13.489
2021212,-95.581,-39.063,8.850
2021222,-95.581,-39.063,8.850
2022002,-95.581,-39.063,8.850
2022020,-90.698,-29.297,7.385
2022100,-90.698,-29.297,7.385
2022110,-87.341,-22.583,7.690
2022120,-87.341,-22.583,7.690
2022201,-87.341,-22.583,7.690
2022211,-85.571,-17.700,8.789
2022221,-85.571,-17.700,8.789
2100001,-85.571,-17.700,12.268
2100011,-81.543,-16.724,12.268
2100022,-81.543,-16.724,12.268
2100102,-76.538,-20.752,17.883
2100112,-76.538,-20.752,17.883
2100122,-76.538,-20.752,17.883
2100210,-68.298,-26.123,24.170
2100220,-68.298,-26.123,24.170
2101000,-55.542,-29.480,30.396
2101010,-55.542,-29.480,30.396
2101020,-55.542,-29.480,30.396
2101101,-23.682,-23.254,40.100
2101111,-23.682,-23.254,40.100
2101121,-23.682,-23.254,40.100
2101201,-6.104,-23.926,37.048
2101211,-6.104,-23.926,37.048
2101221,5.310,-25.574,26.611
2102001,5.310,-25.574,26.611
2102011,5.310,-25.574,26.611
2102022,21.484,-19.897,22.644
2102102,21.484,-19.897,22.644
2102112,21.484,-19.897,22.644
2102122,39.185,-7.324,23.682
2102202,39.185,-7.324,23.682
2102212,51.147,5.249,22.888
2102222,51.147,5.249,22.888
2110002,51.147,5.249,22.888
2110012,61.707,18.372,18.677
2110022,61.707,18.372,18.677
2110102,61.707,18.372,18.677
2110112,75.684,32.227,11.230
2110122,75.684,32.227,11.230
2110202,75.684,32.227,11.230
2110212,87.952,42.175,2.075
2110222,87.952,42.175,2.075
2111002,87.952,42.175,-4.272
2111012,96.191,48.340,-4.272
2111022,96.191,48.340,-4.272
2111102,102.356,52.551,-8.179
2111112,102.356,52.551,-8.179
2111122,102.356,52.551,-8.179
2111210,106.934,56.091,-11.292
2111220,106.934,56.091,-11.292
2112000,106.934,56.091,-11.292
2112010,109.192,61.157,-15.930
2112020,109.192,61.157,-15.930
2112100,112.061,68.298,-21.362
2112110,112.061,68.298,-21.362
2112120,112.061,68.298,-21.362
2112200,117.554,74.463,-25.513
2112210,117.554,74.463,-25.513
2112221,117.554,74.463,-25.513
2120001,125.793,76.111,-26.917
2120011,125.793,76.111,-26.917
2120021,125.793,74.280,-24.902
2120101,134.888,74.280,-24.902
2120111,134.888,74.280,-24.902
2120121,142.395,69.519,-19.470
2120201,142.395,69.519,-19.470
2120211,142.395,69.519,-19.470
2120222,147.461,60.364,-11.414
2121002,147.461,60.364,-11.414
2121012,147.461,60.364,-11.414
2121022,151.550,48.340,-2.869
2121102,151.550,48.340,-2.869
2121112,156.128,38.025,4.150
2121122,156.128,38.025,4.150
2121202,156.128,38.025,4.150
2121212,158.447,30.396,8.606
2121222,158.447,30.396,8.606
2122002,158.447,30.396,8.606
2122012,156.616,27.649,8.972
2122022,156.616,27.649,8.972
2122102,156.616,27.649,8.972
2122112,152.161,31.677,5.859
2122122,152.161,31.677,5.859
2122202,152.161,41.870,0.305
2122212,143.616,41.870,0.305
2122222,143.616,41.870,0.305
2200002,132.690,55.359,-6.165
2200012,132.690,55.359,-6.165
2200022,132.690,55.359,-6.165
2200102,122.437,67.261,-12.268
2200112,122.437,67.261,-12.268
2200122,122.437,67.261,-12.268
2200202,114.563,74.341,-15.015
2200220,114.563,74.341,-15.015
2201000,112.610,79.041,-15.930
2201010,112.610,79.041,-15.930
2201020,112.610,79.041,-15.930
2201100,113.281,80.139,-13.428
2201110,113.281,80.139,-13.428
2201120,113.281,80.139,-13.428
2201200,113.892,75.317,-6.287
2201210,113.892,75.317,-6.287
2201220,113.892,68.298,1.892
2202000,111.023,68.298,1.892
2202010,111.023,68.298,1.892
2202020,105.103,62.439,10.437
2202100,105.103,62.439,10.437
2202110,105.103,62.439,10.437
2202120,97.290,57.617,16.907
2202200,97.290,57.617,16.907
2202210,97.290,57.617,16.907
2202220,86.548,54.749,20.935
2210000,86.548,54.749,20.935
2210010,86.548,54.749,20.935
2210020,73.730,55.481,22.888
2210100,73.730,55.481,22.888
2210110,73.730,58.594,23.804
2210120,61.096,58.594,23.804
2210200,61.096,58.594,23.804
2210210,47.852,61.768,22.827
2210220,47.852,61.768,22.827
2211000,47.852,61.768,22.827
2211010,35.706,65.613,20.325
2211020,35.706,65.613,20.325
2211100,35.706,65.613,20.325
2211110,27.710,69.946,18.188
2211120,27.710,69.946,18.188
2211200,27.710,69.946,18.188
2211210,23.254,73.364,16.907
2211220,23.254,73.364,16.907
2212000,23.254,74.219,15.259
2212010,21.790,74.219,15.259
2212020,21.790,74.219,15.259
2212100,21.851,72.876,13.916
2212110,21.851,72.876,13.916
2212120,21.851,72.876,13.916
2212200,22.461,70.801,12.634
2212210,22.461,70.801,12.634
2212220,22.461,70.801,12.634
2220000,23.376,69.275,10.193
2220010,23.376,69.275,10.193
2220020,23.376,69.275,10.193
2220100,25.757,69.092,6.897
2220110,25.757,69.092,6.897
2220120,25.757,69.336,3.113
2220200,28.137,69.336,3.113
2220210,28.137,69.336,3.113
2220220,29.419,69.580,-0.488
2221000,29.419,69.580,-0.488
2221011,29.419,69.580,-0.488
2221021,29.663,68.787,-2.991
2221101,29.663,68.787,-2.991
2221111,29.663,68.787,-2.991
2221121,31.128,66.406,-4.456
2221201,31.128,66.406,-4.456
2221211,34.302,62.012,-5.310
2221221,34.302,62.012,-5.310
2222001,34.302,62.012,-5.310
2222011,36.438,56.091,-5.188
2222021,36.438,56.091,-5.188
2222101,36.438,56.091,-5.188
2222112,36.560,49.377,-5.127
2222122,36.560,49.377,-5.127
2222202,36.560,49.377,-5.920
2222212,36.804,42.236,-5.920
2222222,36.804,42.236,-5.920
10000002,36.194,35.706,-7.446
10000012,36.194,35.706,-7.446
10000022,36.194,35.706,-7.446
10000110,34.119,30.273,-9.216
10000120,34.119,30.273,-9.216
10000200,34.119,30.273,-9.216
10000210,30.701,25.391,-10.742
10000220,30.701,25.391,-10.742
10001000,25.452,20.264,-12.878
10001010,25.452,20.264,-12.878
10001020,25.452,20.264,-12.878
10001101,19.531,15.686,-15.259
10001111,19.531,15.686,-15.259
10001121,19.531,15.686,-15.259
10001201,13.794,11.475,-16.418
10001211,13.794,11.475,-16.418
10001221,8.301,7.629,-16.357
10002001,8.301,7.629,-16.357
10002011,8.301,7.629,-16.357
10002022,4.272,3.479,-16.479
10002102,4.272,3.479,-16.479
10002112,4.272,3.479,-16.479
10002122,1.404,-1.221,-17.212
10002202,1.404,-1.221,-17.212
10002212,-0.366,-5.005,-18.127
10002222,-0.366,-5.005,-18.127
10010010,-0.366,-5.005,-18.127
10010020,-2.197,-7.812,-19.592
10010100,-2.197,-7.812,-19.592
10010110,-2.197,-7.812,-21.851
10010121,-5.127,-9.583,-21.851
10010201,-5.127,-9.583,-21.851
10010211,-9.460,-9.644,-23.865
10010221,-9.460,-9.644,-23.865
10011002,-9.460,-9.644,-23.865
10011012,-16.296,-8.728,-25.269
10011022,-16.296,-8.728,-25.269
10011102,-24.170,-6.714,-26.367
10011120,-24.170,-6.714,-26.367
10011200,-24.170,-6.714,-26.367
10011210,-32.837,-4.517,-27.466
10011220,-32.837,-4.517,-27.466
10012001,-41.992,-3.052,-28.625
10012011,-41.992,-3.052,-28.625
10012021,-41.992,-3.052,-28.625
10012102,-50.964,-2.930,-29.297
10012112,-50.964,-2.930,-29.297
10012122,-50.964,-4.272,-28.381
10012202,-59.265,-4.272,-28.381
10012220,-59.265,-4.272,-28.381
10020000,-66.223,-7.690,-24.597
10020010,-66.223,-7.690,-24.597
10020021,-66.223,-7.690,-17.212
10020101,-73.425,-14.954,-17.212
10020111,-73.425,-14.954,-17.212
10020121,-75.623,-21.729,-11.658
10020202,-75.623,-21.729,-11.658
10020212,-75.623,-21.729,-11.658
10020222,-80.688,-27.710,-8.789
10021010,-80.688,-27.710,-8.789
10021020,-86.182,-34.790,-4.333
10021100,-86.182,-34.790,-4.333
10021110,-86.182,-34.790,-4.333
10021121,-87.463,-45.532,1.404
10021201,-87.463,-45.532,1.404
10021211,-89.783,-55.908,8.179
10021221,-89.783,-55.908,8.179
10022001,-89.783,-55.908,8.179
10022012,-91.614,-62.134,12.756
10022022,-91.614,-62.134,12.756
10022102,-91.614,-62.134,12.756
10022112,-92.285,-62.927,13.977
10022200,-92.285,-62.927,13.977
10022210,-90.759,-57.739,13.794
10022220,-90.759,-57.739,13.794
10100000,-90.759,-57.739,13.794
10100010,-87.830,-52.307,10.925
10100020,-87.830,-52.307,10.925
10100101,-87.830,-52.185,6.470
10100111,-85.876,-52.185,6.470
10100121,-85.876,-52.185,6.470
10100201,-85.083,-55.298,4.272
10100211,-85.083,-55.298,4.272
10100221,-85.083,-55.298,4.272
10101002,-84.656,-54.871,8.057
10101012,-84.656,-54.871,8.057
10101022,-86.121,-49.316,16.235
10101102,-86.121,-49.316,16.235
10101112,-86.121,-49.316,16.235
10101122,-89.600,-43.762,26.245
10101210,-89.600,-43.762,26.245
10101220,-89.600,-43.762,26.245
10102000,-88.257,-44.983,35.889
10102010,-88.257,-44.983,35.889
10102021,-82.214,-57.007,45.898
10102101,-82.214,-57.007,45.898
10102111,-82.214,-57.007,45.898
10102121,-75.378,-75.928,56.580
10102201,-75.378,-75.928,56.580
10102211,-75.378,-75.928,66.467
10102222,-71.472,-93.079,66.467
10110002,-71.472,-93.079,66.467
10110012,-72.815,-105.591,73.669
10110022,-72.815,-105.591,73.669
10110102,-72.815,-105.591,73.669
10110112,-71.289,-111.023,72.571
10110200,-71.289,-111.023,72.571
10110210,-68.420,-105.835,61.401
10110220,-68.420,-105.835,61.401
10111000,-68.420,-105.835,61.401
10111011,-84.412,-94.666,53.162
10111021,-84.412,-94.666,53.162
10111101,-84.412,-94.666,53.162
10111111,-107.483,-77.881,46.631
10111121,-107.483,-77.881,46.631
10111202,-123.901,-53.833,36.560
10111212,-123.901,-53.833,36.560
10111222,-123.901,-53.833,36.560
10112002,-138.916,-34.668,25.269
10112012,-138.916,-34.668,25.269
10112100,-138.916,-21.606,18.127
10112110,-153.320,-21.606,18.127
10112120,-153.320,-21.606,18.127
10112200,-156.250,-17.029,16.785
10112210,-156.250,-17.029,16.785
10112221,-156.250,-17.029,16.785
10120001,-149.780,-16.968,22.034
10120011,-149.780,-16.968,22.034
10120021,-136.536,-22.400,31.250
10120101,-136.536,-22.400,31.250
10120111,-136.536,-22.400,31.250
10120122,-120.483,-34.302,40.100
10120202,-120.483,-34.302,40.100
10120212,-120.483,-34.302,40.100
10120222,-102.295,-47.852,46.082
10121002,-102.295,-47.852,46.082
10121020,-84.839,-56.274,46.326
10121100,-84.839,-56.274,46.326
10121110,-84.839,-56.274,46.326
10121120,-73.120,-52.856,42.236
10121200,-73.120,-52.856,42.236
10121211,-73.120,-37.170,36.316
10121221,-67.627,-37.170,36.316
10122001,-67.627,-37.170,36.316
10122011,-66.772,-16.052,29.785
10122021,-66.772,-16.052,29.785
10122102,-66.772,-16.052,29.785
10122112,-67.749,4.456,22.766
10122122,-67.749,4.456,22.766
10122202,-67.444,22.888,16.785
10122212,-67.444,22.888,16.785
10122222,-67.444,22.888,16.785
10200002,-62.805,36.072,13.428
10200012,-62.805,36.072,13.428
10200022,-62.805,36.072,13.428
10200110,-51.880,43.335,10.986
10200120,-51.880,43.335,10.986
10200200,-51.880,43.335,8.179
10200210,-37.476,43.884,8.179
10200220,-37.476,43.884,8.179
10201000,-21.973,40.894,4.822
10201010,-21.973,40.894,4.822
10201020,-21.973,40.894,4.822
10201100,-7.324,37.842,1.221
10201110,-7.324,37.842,1.221
10201121,-7.324,37.842,1.221
10201201,4.089,35.278,-2.686
10201211,4.089,35.278,-2.686
10201221,14.282,34.668,-8.240
10202001,14.282,34.668,-8.240
10202011,14.282,34.668,-8.240
10202021,22.583,36.377,-15.259
10202101,22.583,36.377,-15.259
10202111,22.583,36.377,-15.259
10202122,30.884,38.818,-21.301
10202202,30.884,38.818,-21.301
10202212,40.039,42.114,-25.330
10202222,40.039,42.114,-25.330
10210002,40.039,42.114,-25.330
10210012,49.744,45.227,-28.076
10210022,49.744,45.227,-28.076
10210102,49.744,45.227,-28.076
10210112,58.289,46.448,-28.931
10210122,58.289,46.448,-28.931
10210210,58.289,46.448,-27.771
10210220,64.270,46.143,-27.771
10211000,64.270,46.143,-27.771
10211010,69.092,45.166,-25.696
10211020,69.092,45.166,-25.696
10211100,69.092,45.166,-25.696
10211110,74.219,44.250,-23.621
10211120,74.219,44.250,-23.621
10211200,74.219,44.250,-23.621
10211211,81.238,43.884,-22.339
10211221,81.238,43.884,-22.339
10212001,89.478,44.739,-22.278
10212011,89.478,44.739,-22.278
10212021,89.478,44.739,-22.278
10212101,97.534,46.448,-22.095
10212111,97.534,46.448,-22.095
10212121,97.534,46.448,-22.095
10212201,106.262,46.753,-20.020
10212211,106.262,46.753,-20.020
10212222,115.845,42.664,-17.090
10220002,115.845,42.664,-17.090
10220012,115.845,42.664,-17.090
10220022,123.169,35.339,-13.611
10220102,123.169,35.339,-13.611
10220112,123.169,35.339,-13.611
10220122,128.174,28.198,-7.751
10220202,128.174,28.198,-7.751
10220212,128.174,28.198,-7.751
10220222,132.629,20.996,-0.854
10221002,132.629,20.996,-0.854
10221020,136.353,12.085,5.127
10221100,136.353,12.085,5.127
10221110,136.353,12.085,5.127
10221120,138.123,5.005,8.911
10221200,138.123,5.005,8.911
10221210,138.123,5.005,8.911
10221220,137.085,2.930,10.559
10222000,137.085,2.930,10.559
10222010,137.085,2.930,10.559
10222020,132.874,7.080,8.728
10222100,132.874,7.080,8.728
10222110,126.648,18.799,3.784
10222120,126.648,18.799,3.784
10222200,126.648,18.799,3.784
10222210,120.789,34.973,-2.869
10222220,120.789,34.973,-2.869
11000000,120.789,34.973,-2.869
11000010,116.272,49.500,-8.484
11000020,116.272,49.500,-8.484
11000100,116.272,49.500,-8.484
11000110,111.023,58.960,-11.841
11000120,111.023,58.960,-11.841
11000200,103.455,61.279,-10.986
11000210,103.455,61.279,-10.986
11000221,103.455,61.279,-10.986
11001001,96.619,59.387,-6.470
11001011,96.619,59.387,-6.470
11001021,96.619,59.387,-6.470
11001101,91.125,55.908,-0.854
11001111,91.125,55.908,-0.854
11001121,91.125,52.917,6.165
11001201,85.632,52.917,6.165
11001211,85.632,52.917,6.165
11001221,78.918,49.683,12.268
11002001,78.918,49.683,12.268
11002011,78.918,49.683,12.268
11002021,74.219,47.546,16.724
11002101,74.219,47.546,16.724
11002111,74.219,47.546,16.724
11002121,72.632,46.753,21.118
11002201,72.632,46.753,21.118
11002211,72.632,46.753,21.118
11002221,70.801,46.021,25.208
11010001,70.801,46.021,25.208
11010011,70.801,44.556,27.649
11010021,69.336,44.556,27.649
11010101,69.336,44.556,27.649
11010111,69.092,44.495,28.198
11010121,69.092,44.495,28.198
11010201,69.092,44.495,28.198
11010211,68.115,46.326,27.039
11010221,68.115,46.326,27.039
11011001,68.115,46.326,27.039
11011011,64.575,49.866,23.376
11011021,64.575,49.866,23.376
11011101,64.575,49.866,23.376
11011111,59.631,55.908,17.578
11011121,59.631,55.908,17.578
11011201,55.115,65.308,11.536
11011211,55.115,65.308,11.536
11011221,55.115,65.308,11.536
11012001,50.049,74.463,6.714
11012011,50.049,74.463,6.714
11012021,50.049,74.463,6.714
11012101,46.509,79.773,2.930
11012111,46.509,79.773,2.930
11012121,46.509,79.773,2.930
11012201,43.823,80.017,0.488
11012211,43.823,80.017,0.488
11012221,43.823,80.017,-1.404
11020001,39.978,78.003,-1.404
11020011,39.978,78.003,-1.404
11020021,37.720,75.684,-2.136
11020101,37.720,75.684,-2.136
11020111,37.720,75.684,-2.136
11020122,38.208,73.914,-2.258
11020202,38.208,73.914,-2.258
11020212,38.208,73.914,-2.258
11020222,41.199,71.960,-2.136
11021002,41.199,71.960,-2.136
11021012,45.166,68.054,-2.258
11021022,45.166,68.054,-2.258
11021102,45.166,68.054,-2.258
11021112,48.950,61.584,-2.502
11021200,48.950,61.584,-2.502
11021210,48.950,61.584,-2.502
11021220,50.232,54.016,-3.174
11022000,50.232,54.016,-3.174
11022010,50.232,47.546,-3.601
11022020,49.377,47.546,-3.601
11022100,49.377,47.546,-3.601
11022110,47.424,42.114,-3.357
11022120,47.424,42.114,-3.357
11022200,47.424,42.114,-3.357
11022211,44.434,37.048,-3.357
11022221,44.434,37.048,-3.357
11100001,44.434,37.048,-3.357
11100011,41.626,31.250,-3.418
11100021,41.626,31.250,-3.418
11100101,38.452,24.231,-3.357
11100111,38.452,24.231,-3.357
11100121,38.452,24.231,-3.357
11100201,34.180,17.151,-3.052
11100211,34.180,17.151,-3.052
11100222,34.180,17.151,-3.052
11101002,30.457,11.475,-2.319
11101012,30.457,11.475,-2.319
11101022,27.771,7.385,-2.075
11101102,27.771,7.385,-2.075
11101112,27.771,7.385,-2.075
11101122,25.391,5.066,-2.441
11101202,25.391,5.066,-2.441
11101212,25.391,5.066,-2.441
11102000,23.621,4.333,-4.333
11102010,23.621,4.333,-4.333
11102020,23.621,3.845,-7.263
11102100,21.729,3.845,-7.263
11102110,21.729,3.845,-7.263
11102120,18.799,3.357,-9.460
11102200,18.799,3.357,-9.460
11102210,18.799,3.357,-9.460
11102221,15.869,2.502,-10.681
11110001,15.869,2.502,-10.681
11110011,15.869,-13.123,-12.268
11110021,13.306,-0.549,-12.268
11110101,13.306,-0.549,-12.268
11110111,11.780,-4.822,-13.672
11110121,11.780,-4.822,-13.672
11110202,11.780,-4.822,-13.672
11110212,10.193,-8.545,-14.587
11110222,10.193,-8.545,-14.587
11111002,7.935,-12.451,-15.503
11111012,7.935,-12.451,-15.503
11111100,7.935,-12.451,-15.503
11111110,5.310,-16.602,-16.968
11111120,5.310,-16.602,-16.968
11111200,5.310,-16.602,-16.968
11111210,2.014,-19.348,-18.799
11111221,2.014,-19.348,-18.799
11112001,-3.113,-20.142,-20.874
11112011,-3.113,-20.142,-20.874
11112021,-3.113,-20.142,-20.874
11112102,-9.949,-19.226,-22.827
11112112,-9.949,-19.226,-22.827
11112122,-18.982,-19.897,-26.184
11112210,-18.982,-19.897,-26.184
11112220,-18.982,-19.897,-26.184
11120000,-29.297,-23.865,-30.884
11120010,-29.297,-23.865,-30.884
11120021,-29.297,-29.114,-36.255
11120101,-41.321,-29.114,-36.255
11120111,-41.321,-29.114,-36.255
11120121,-55.176,-31.921,-40.588
11120202,-55.176,-31.921,-40.588
11120212,-55.176,-31.921,-40.588
11120222,-68.054,-32.043,-44.006
11121010,-68.054,-32.043,-44.006
11121020,-78.674,-31.311,-46.631
11121100,-78.674,-31.311,-46.631
11121111,-78.674,-31.311,-46.631
11121121,-85.815,-31.067,-47.180
11121201,-85.815,-31.067,-47.180
11121211,-89.600,-32.959,-46.936
11121222,-89.600,-32.959,-46.936
11122002,-89.600,-32.959,-46.936
11122012,-91.797,-35.339,-45.715
11122100,-91.797,-35.339,-45.715
11122110,-94.116,-38.025,-42.786
11122120,-94.116,-38.025,-42.786
11122200,-94.116,-38.025,-42.786
11122211,-96.252,-40.344,-38.086
11122221,-96.252,-40.344,-38.086
11200001,-96.375,-42.053,-33.264
11200012,-96.375,-42.053,-33.264
11200022,-96.375,-42.053,-33.264
11200102,-97.412,-43.945,-29.297
11200112,-97.412,-43.945,-29.297
11200200,-97.412,-43.945,-25.024
11200210,-99.976,-45.166,-25.024
11200220,-99.976,-45.166,-25.024
11201001,-104.065,-45.349,-20.935
11201011,-104.065,-45.349,-20.935
11201021,-104.065,-45.349,-15.137
11201102,-108.459,-42.786,-15.137
11201112,-108.459,-42.786,-15.137
11201122,-112.305,-37.537,-7.996
11201202,-112.305,-37.537,-7.996
11201220,-112.305,-37.537,-7.996
11202000,-113.892,-32.104,-0.549
11202010,-113.892,-32.104,-0.549
11202021,-108.704,-30.212,10.071
11202101,-108.704,-30.212,10.071
11202111,-108.704,-30.212,10.071
11202121,-96.924,-36.255,22.644
11202201,-96.924,-36.255,22.644
11202212,-81.848,-45.044,35.278
11202222,-81.848,-45.044,35.278
11210002,-81.848,-45.044,35.278
11210012,-63.965,-50.110,48.645
11210022,-63.965,-50.110,48.645
11210102,-63.965,-50.110,48.645
11210120,-49.744,-55.237,62.622
11210200,-49.744,-55.237,62.622
11210210,-42.175,-65.369,78.979
11210220,-42.175,-65.369,78.979
11211000,-42.175,-65.369,78.979
11211010,-40.283,-80.994,97.168
11211021,-40.283,-80.994,97.168
11211101,-40.283,-80.994,97.168
11211111,-37.659,-97.961,118.835
11211121,-37.659,-97.961,118.835
11211201,-35.400,-115.906,138.611
11211211,-35.400,-115.906,138.611
11211222,-35.400,-115.906,138.611
11212002,-45.166,-132.507,153.259
11212012,-45.166,-132.507,153.259
11212022,-45.166,-132.507,153.259
11212102,-46.997,-133.362,148.682
11212112,-46.997,-133.362,148.682
11212122,-53.589,-108.459,128.540
11212210,-53.589,-108.459,128.540
11212220,-53.589,-108.459,128.540
11220000,-77.271,-72.632,109.619
11220010,-77.271,-72.632,109.619
11220021,-77.271,-36.194,92.773
11220101,-101.135,-36.194,92.773
11220111,-101.135,-36.194,92.773
11220121,-123.535,-9.399,73.303
11220201,-123.535,-9.399,73.303
11220211,-123.535,-9.399,73.303
11220222,-127.808,12.146,65.613
11221002,-127.808,12.146,65.613
11221012,-127.808,17.639,70.435
11221022,-132.141,17.639,70.435
11221102,-132.141,17.639,70.435
11221112,-139.160,8.118,83.923
11221122,-139.160,8.118,83.923
11221202,-139.160,8.118,83.923
11221212,-133.179,-9.827,100.830
11221222,-133.179,-9.827,100.830
11222010,-133.179,-9.827,112.183
11222020,-118.835,-29.907,112.183
11222100,-118.835,-29.907,112.183
11222110,-101.746,-44.922,117.798
11222120,-101.746,-44.922,117.798
11222200,-101.746,-44.922,117.798
11222210,-85.022,-51.697,119.995
11222221,-85.022,-51.697,119.995
12000001,-85.022,-51.697,117.493
12000011,-72.449,-49.622,117.493
12000021,-72.449,-49.622,117.493
12000101,-65.979,-41.809,110.229
12000112,-65.979,-41.809,110.229
12000122,-65.979,-41.809,110.229
12000202,-60.120,-26.978,98.206
12000212,-60.120,-26.978,98.206
12000222,-59.753,-11.902,80.872
12001010,-59.753,-11.902,80.872
12001020,-59.753,-11.902,80.872
12001100,-66.589,-2.991,63.904
12001110,-66.589,-2.991,63.904
12001120,-66.589,-2.991,63.904
12001201,-65.491,2.441,49.133
12001211,-65.491,2.441,49.133
12001221,-55.298,4.944,35.645
12002001,-55.298,4.944,35.645
12002011,-55.298,4.944,35.645
12002021,-42.053,3.662,24.414
12002101,-42.053,3.662,24.414
12002111,-42.053,3.662,24.414
12002122,-27.527,-2.197,18.005
12002202,-27.527,-2.197,18.005
12002212,-11.353,-10.437,16.541
12002222,-11.353,-10.437,16.541
12010002,-11.353,-10.437,16.541
12010020,2.563,-18.738,17.212
12010100,2.563,-18.738,17.212
12010110,2.563,-18.738,17.212
12010120,10.925,-24.048,16.968
12010200,10.925,-24.048,16.968
12010210,14.465,-22.461,12.756
12010220,14.465,-22.461,12.756
12011000,14.465,-22.461,12.756
12011010,14.771,-11.353,4.028
12011020,14.771,-11.353,4.028
12011100,14.771,-11.353,4.028
12011111,12.634,6.470,-5.615
12011121,12.634,6.470,-5.615
12011201,12.634,28.748,-15.076
12011211,6.042,28.748,-15.076
12011221,6.042,28.748,-15.076
12012001,-5.310,51.758,-24.597
12012011,-5.310,51.758,-24.597
12012021,-5.310,51.758,-24.597
12012102,-13.916,70.984,-34.607
12012112,-13.916,70.984,-34.607
12012122,-14.221,83.618,-43.457
12012202,-14.221,83.618,-43.457
12012212,-14.221,83.618,-43.457
12012222,-7.629,88.074,-50.049
12020010,-7.629,88.074,-50.049
12020020,-7.629,88.074,-50.049
12020100,3.479,84.656,-50.964
12020110,3.479,84.656,-50.964
12020120,18.860,76.111,-47.180
12020200,18.860,76.111,-47.180
12020210,18.860,76.111,-47.180
12020221,36.865,66.956,-42.908
12021001,36.865,66.956,-42.908
12021011,36.865,66.956,-42.908
12021021,54.993,58.350,-40.039
12021101,54.993,58.350,-40.039
12021111,54.993,50.842,-37.598
12021121,69.214,50.842,-37.598
12021201,69.214,50.842,-37.598
12021211,78.369,44.495,-35.156
12021222,78.369,44.495,-35.156
12022002,78.369,44.495,-35.156
12022012,81.970,41.382,-33.203
12022022,81.970,41.382,-33.203
12022102,81.970,41.382,-32.227
12022112,83.496,41.321,-32.227
12022122,83.496,41.321,-32.227
12022202,84.412,40.833,-33.081
12022212,84.412,40.833,-33.081
12100000,84.412,40.833,-33.081
12100010,85.632,38.818,-33.691
12100020,85.632,38.818,-33.691
12100100,85.632,38.818,-33.691
12100110,88.135,35.400,-33.081
12100120,88.135,35.400,-33.081
12100200,92.712,31.250,-31.067
12100210,92.712,31.250,-31.067
12100220,92.712,31.250,-31.067
12101000,99.609,26.062,-27.710
12101010,99.609,26.062,-27.710
12101021,99.609,26.062,-27.710
12101101,109.131,18.982,-22.705
12101111,109.131,18.982,-22.705
12101121,109.131,10.681,-16.296
12101201,118.896,10.681,-16.296
12101211,118.896,10.681,-16.296
12101221,126.221,3.540,-9.583
12102001,126.221,3.540,-9.583
12102011,126.221,3.540,-9.583
12102022,130.310,-0.610,-3.662
12102102,130.310,-0.610,-3.662
12102112,130.310,-2.502,-0.366
12102122,132.385,-2.502,-0.366
12102202,132.385,-2.502,-0.366
12102220,134.155,-1.343,2.197
12110000,134.155,-1.343,2.197
12110010,134.155,-1.343,2.197
12110020,132.385,3.662,2.930
12110100,132.385,3.662,2.930
12110110,132.385,3.662,1.770
12110120,127.380,11.841,1.770
12110200,127.380,11.841,1.770
12110210,120.728,21.729,-0.427
12110220,120.728,21.729,-0.427
12111000,120.728,21.729,-0.427
12111010,112.915,32.715,-2.441
12111020,112.915,32.715,-2.441
12111101,112.915,32.715,-2.441
12111111,105.591,46.082,-4.700
12111121,105.591,46.082,-4.700
12111201,105.591,60.120,-7.690
12111211,100.342,60.120,-7.690
12111221,100.342,60.120,-7.690
12112001,97.961,71.777,-9.705
12112011,97.961,71.777,-9.705
12112021,97.961,71.777,-9.705
12112101,95.581,78.979,-9.766
12112111,95.581,78.979,-9.766
12112122,95.581,78.979,-7.507
12112202,89.966,81.055,-7.507
12112212,89.966,81.055,-7.507
12112222,87.646,78.552,-2.747
12120002,87.646,78.552,-2.747
12120012,87.646,78.552,-2.747
12120022,89.050,72.693,3.784
12120102,89.050,72.693,3.784
12120112,89.050,72.693,3.784
12120122,91.064,66.589,11.169
12120202,91.064,66.589,11.169
12120212,91.064,61.951,18.433
12120222,96.558,61.951,18.433
12121002,96.558,61.951,18.433
12121012,101.501,58.411,23.987
12121022,101.501,58.411,23.987
12121102,101.501,58.411,23.987
12121112,104.431,56.763,27.039
12121122,104.431,56.763,27.039
12121202,104.431,56.763,27.039
12121212,105.652,57.739,27.832
12121222,105.652,57.739,27.832
12122002,105.652,57.739,27.832
12122012,103.271,62.317,24.353
12122022,103.271,62.317,24.353
12122102,103.271,71.655,16.052
12122112,98.755,71.655,16.052
12122122,98.755,71.655,16.052
12122202,93.811,83.984,4.517
12122212,93.811,83.984,4.517
12122222,93.811,83.984,4.517
12200002,87.830,97.290,-5.798
12200012,87.830,97.290,-5.798
12200022,87.830,97.290,-5.798
12200102,79.224,108.643,-12.268
12200120,79.224,108.643,-12.268
12200200,79.224,114.563,-14.648
12200210,69.885,114.563,-14.648
12200220,69.885,114.563,-14.648
12201000,63.110,111.755,-13.611
12201010,63.110,111.755,-13.611
12201020,63.110,111.755,-13.611
12201100,59.692,100.769,-9.827
12201110,59.692,100.769,-9.827
12201120,59.692,100.769,-9.827
12201201,56.702,86.609,-5.920
12201211,56.702,86.609,-5.920
12201221,52.612,74.097,-2.075
12202001,52.612,74.097,-2.075
12202011,52.612,74.097,-2.075
12202021,48.218,63.965,2.991
12202101,48.218,63.965,2.991
12202111,48.218,63.965,2.991
12202121,44.556,56.335,7.385
12202201,44.556,56.335,7.385
12202211,44.556,56.335,7.385
12202221,40.588,51.392,7.812
12210001,40.588,51.392,7.812
12210011,35.706,48.035,4.517
12210021,35.706,48.035,4.517
12210101,35.706,48.035,4.517
12210111,30.518,45.044,-0.183
12210121,30.518,45.044,-0.183
12210201,30.518,45.044,-0.183
12210211,26.794,41.809,-2.991
12210221,26.794,41.809,-2.991
12211002,26.794,41.809,-4.089
12211012,23.437,37.476,-4.089
12211022,23.437,37.476,-4.089
12211102,19.226,31.433,-5.371
12211112,19.226,31.433,-5.371
12211122,19.226,31.433,-5.371
12211202,15.198,24.170,-6.409
12211212,15.198,24.170,-6.409
12211222,15.198,24.170,-6.409
12212002,11.169,17.029,-6.775
12212020,11.169,17.029,-6.775
12212100,6.897,11.230,-6.104
12212110,6.897,11.230,-6.104
12212120,6.897,11.230,-6.104
12212200,3.052,6.409,-5.005
12212210,3.052,6.409,-5.005
12212220,3.052,6.409,-5.005
12220000,0.427,3.052,-4.272
12220010,0.427,3.052,-4.272
12220021,-15.198,0.183,-3.906
12220101,-1.892,0.183,-3.906
12220111,-1.892,0.183,-3.906
12220121,-3.540,-3.784,-3.296
12220201,-3.540,-3.784,-3.296
12220212,-3.540,-3.784,-3.296
12220222,-3.540,-7.996,-3.845
12221002,-3.540,-7.996,-3.845
12221012,-3.357,-12.207,-6.165
12221100,-3.357,-12.207,-6.165
12221110,-3.357,-12.207,-6.165
12221120,-4.395,-15.015,-9.888
12221200,-4.395,-15.015,-9.888
12221211,-5.127,-16.418,-12.634
12221221,-5.127,-16.418,-12.634
12222001,-5.127,-16.418,-12.634
12222012,-8.667,-16.846,-14.160
12222022,-8.667,-16.846,-14.160
12222102,-8.667,-19.470,-13.550
12222112,-12.695,-19.470,-13.550
12222200,-12.695,-19.470,-13.550
12222210,-15.808,-26.917,-10.864
12222220,-15.808,-26.917,-10.864
20000000,-15.808,-26.917,-10.864
20000011,-19.470,-37.231,-8.301
20000021,-19.470,-37.231,-8.301
20000101,-23.254,-45.837,-6.042
20000112,-23.254,-45.837,-6.042
20000122,-23.254,-45.837,-6.042
20000202,-27.893,-50.232,-4.272
20000220,-27.893,-50.232,-4.272
20001000,-32.715,-50.537,-3.967
20001010,-32.715,-50.537,-3.967
20001020,-32.715,-50.537,-3.967
20001101,-37.476,-47.729,-4.944
20001111,-37.476,-47.729,-4.944
20001121,-42.664,-44.250,-6.775
20001202,-42.664,-44.250,-6.775
20001212,-42.664,-44.250,-6.775
20001222,-48.950,-41.931,-8.484
20002002,-48.950,-41.931,-8.484
20002020,-55.237,-41.016,-9.644
20002100,-55.237,-41.016,-9.644
20002110,-55.237,-41.016,-9.644
20002120,-59.875,-41.626,-10.681
20002201,-59.875,-41.626,-10.681
20002211,-59.875,-41.626,-10.681
20002221,-63.049,-43.701,-11.597
20010001,-63.049,-43.701,-11.597
20010012,-65.063,-45.776,-12.451
20010022,-65.063,-45.776,-12.451
20010102,-65.063,-45.776,-12.451
20010120,-66.040,-46.997,-12.878
20010200,-66.040,-46.997,-12.878
20010210,-65.552,-46.570,-12.634
20010220,-65.552,-46.570,-12.634
20011001,-65.552,-46.570,-12.634
20011011,-63.904,-45.227,-11.169
20011021,-63.904,-45.227,-11.169
20011102,-60.974,-44.617,-9.460
20011112,-60.974,-44.617,-9.460
20011122,-60.974,-44.617,-9.460
20011202,-57.556,-45.593,-8.606
20011220,-57.556,-45.593,-8.606
20012000,-57.556,-61.218,-7.019
20012010,-55.115,-48.096,-7.019
20012020,-55.115,-48.096,-7.019
20012101,-48.462,-50.171,-4.517
20012111,-48.462,-50.171,-4.517
20012121,-48.462,-50.171,-4.517
20012201,-44.373,-52.612,-8.972
20012212,-44.373,-52.612,-8.972
20012222,-42.603,-54.932,-10.559
20020002,-42.603,-54.932,-10.559
20020020,-42.603,-54.932,-10.559
20020100,-39.673,-57.373,-10.193
20020110,-39.673,-57.373,-10.193
20020121,-35.034,-60.364,-8.484
20020201,-35.034,-60.364,-8.484
20020211,-35.034,-60.364,-8.484
20020221,-26.611,-60.852,-1.770
20021002,-26.611,-60.852,-1.770
20021012,-21.057,-61.829,8.545
20021022,-21.057,-61.829,8.545
20021102,-21.057,-61.829,8.545
20021112,-18.127,-66.345,22.400
20021200,-18.127,-66.345,22.400
20021210,-18.127,-66.345,38.025
20021220,-11.719,-75.989,38.635
20022000,-11.719,-75.989,38.635
20022011,-8.057,-93.689,57.617
20022021,-8.057,-93.689,57.617
20022101,-8.057,-93.689,57.617
20022111,-12.207,-114.624,76.965
20022121,-12.207,-114.624,76.965
20022202,-27.832,-127.563,93.811
20022212,-26.367,-127.563,93.811
20022222,-26.367,-127.563,93.811
20100002,-42.847,-129.272,100.098
20100012,-42.847,-129.272,100.098
20100022,-42.847,-129.272,100.098
20100110,-62.561,-119.629,92.285
20100120,-62.561,-119.629,92.285
20100200,-85.999,-98.877,76.660
20100210,-85.999,-98.877,76.660
20100220,-85.999,-98.877,76.660
20101000,-114.624,-71.045,58.777
20101011,-114.624,-71.045,58.777
20101021,-114.624,-71.045,58.777
20101101,-142.883,-39.978,47.668
20101111,-142.883,-39.978,47.668
20101121,-159.790,-8.789,39.795
20101202,-159.790,-8.789,39.795
20101212,-159.790,-8.789,39.795
20101222,-168.091,10.498,34.668
20102002,-168.091,10.498,34.668
20102012,-168.091,10.498,34.668
20102022,-172.607,7.507,38.391
20102102,-172.607,7.507,38.391
20102112,-167.297,-11.963,48.401
20102122,-167.297,-11.963,48.401
20102210,-167.297,-11.963,48.401
20102220,-157.166,-37.109,53.528
20110000,-157.166,-37.109,53.528
20110010,-157.166,-37.109,53.345
20110020,-150.391,-56.335,53.345
20110101,-150.391,-56.335,53.345
20110111,-150.452,-61.646,51.941
20110121,-150.452,-61.646,51.941
20110201,-150.452,-61.646,51.941
20110211,-154.114,-53.345,50.659
20110222,-154.114,-53.345,50.659
20111002,-160.950,-37.109,49.805
20111012,-160.950,-37.109,49.805
20111022,-160.950,-37.109,49.805
20111102,-170.227,-21.729,48.828
20111120,-170.227,-21.729,48.828
20111200,-170.227,-21.729,48.828
20111210,-177.124,-13.733,47.852
20111220,-177.124,-13.733,47.852
20112000,-177.246,-15.930,45.654
20112011,-177.246,-15.930,45.654
20112021,-177.246,-15.930,45.654
20112101,-167.419,-26.123,41.687
20112111,-167.419,-26.123,41.687
20112121,-167.419,-26.123,41.687
20112201,-145.813,-39.185,37.354
20112212,-145.813,-39.185,37.354
20112222,-119.202,-49.805,28.687
20120002,-119.202,-49.805,28.687
20120012,-119.202,-49.805,28.687
20120022,-97.900,-54.688,15.381
20120110,-97.900,-54.688,15.381
20120120,-97.900,-53.345,3.052
20120200,-91.553,-53.345,3.052
20120210,-91.553,-53.345,3.052
20120220,-91.309,-44.922,-6.653
20121001,-91.309,-44.922,-6.653
20121011,-91.309,-44.922,-6.653
20121021,-92.407,-27.588,-13.245
20121102,-92.407,-27.588,-13.245
20121112,-91.919,-8.423,-13.916
20121122,-91.919,-8.423,-13.916
20121202,-91.919,-8.423,-13.916
20121220,-87.708,3.784,-10.193
20122000,-87.708,3.784,-10.193
20122010,-81.299,10.925,-7.874
20122020,-81.299,10.925,-7.874
20122100,-81.299,10.925,-7.874
20122111,-70.557,19.165,-7.812
20122121,-70.557,19.165,-7.812
20122201,-70.557,19.165,-7.812
20122211,-55.115,27.344,-6.775
20122221,-55.115,27.344,-6.775
20200001,-37.659,31.250,-4.028
20200012,-37.659,31.250,-4.028
20200022,-37.659,31.250,-4.028
20200102,-19.409,30.212,-3.784
20200112,-19.409,30.212,-3.784
20200122,-19.409,30.212,-8.057
20200202,-2.625,26.184,-8.057
20200220,-2.625,26.184,-8.057
20201000,13.611,23.437,-13.000
20201010,13.611,23.437,-13.000
20201020,13.611,23.437,-13.000
20201100,28.198,24.170,-18.188
20201110,28.198,24.170,-18.188
20201120,28.198,24.170,-18.188
20201200,35.950,26.123,-22.644
20201211,35.950,26.123,-22.644
20201221,37.720,28.809,-27.161
20202001,37.720,28.809,-27.161
20202011,37.720,28.809,-27.161
20202021,41.931,34.241,-32.715
20202101,41.931,34.241,-32.715
20202111,41.931,34.241,-32.715
20202121,51.453,40.161,-37.598
20202201,51.453,40.161,-37.598
20202211,66.772,45.227,-40.527
20202221,66.772,45.227,-40.527
20210002,66.772,45.227,-40.527
20210012,82.275,49.683,-43.640
20210022,82.275,49.683,-43.640
20210102,82.275,49.683,-43.640
20210112,93.506,52.734,-45.166
20210122,93.506,52.734,-45.166
20210202,93.506,55.786,-45.227
20210212,102.600,55.786,-45.227
20210222,102.600,55.786,-45.227
20211002,109.009,60.059,-46.692
20211020,109.009,60.059,-46.692
20211100,109.009,60.059,-46.692
20211110,111.450,64.758,-49.194
20211120,111.450,64.758,-49.194
20211200,111.450,64.758,-49.194
20211210,112.244,70.679,-52.551
20211220,112.244,70.679,-52.551
20212000,114.502,77.209,-57.739
20212010,114.502,77.209,-57.739
20212020,114.502,77.209,-57.739
20212101,117.126,80.933,-63.538
20212111,117.126,80.933,-63.538
20212121,117.126,80.933,-63.538
20212201,121.399,79.346,-66.711
20212211,121.399,79.346,-66.711
20212221,121.399,73.792,-67.261
20220001,129.089,73.792,-67.261
20220011,129.089,73.792,-67.261
20220021,139.648,66.956,-66.711
20220101,139.648,66.956,-66.711
20220112,139.648,66.956,-66.711
20220122,150.696,59.937,-63.782
20220202,150.696,59.937,-63.782
20220212,150.696,59.937,-57.007
20220222,160.461,52.856,-57.007
20221002,160.461,52.856,-57.007
20221012,167.908,43.518,-46.997
20221022,167.908,43.518,-46.997
20221102,167.908,43.518,-46.997
20221112,173.950,31.616,-36.926
20221200,173.950,31.616,-36.926
20221210,173.950,31.616,-36.926
20221220,176.758,19.836,-29.419
20222000,176.758,19.836,-29.419
20222010,174.744,10.803,-24.719
20222020,174.744,10.803,-24.719
20222100,174.744,10.803,-24.719
20222110,166.931,6.287,-20.447
20222120,166.931,6.287,-20.447
20222200,166.931,6.287,-20.447
20222210,156.250,8.118,-18.799
20222220,156.250,8.118,-18.799
21000000,156.250,8.118,-18.799
21000011,143.616,14.282,-22.095
21000021,143.616,14.282,-22.095
21000101,130.554,23.071,-27.893
21000111,130.554,23.071,-27.893
21000121,130.554,23.071,-27.893
21000201,120.056,34.302,-33.508
21000211,120.056,34.302,-33.508
21000221,120.056,34.302,-33.508
21001001,111.084,43.030,-37.903
21001011,111.084,43.030,-37.903
21001021,95.459,46.997,-39.368
21001102,104.004,46.997,-39.368
21001112,104.004,46.997,-39.368
21001122,101.868,49.500,-36.255
21001202,101.868,49.500,-36.255
21001212,101.868,49.500,-36.255
21001222,101.685,51.514,-29.541
21002002,101.685,51.514,-29.541
21002012,101.685,51.514,-29.541
21002022,102.173,51.941,-21.240
21002102,102.173,51.941,-21.240
21002112,104.187,51.208,-13.000
21002200,104.187,51.208,-13.000
21002210,104.187,51.208,-13.000
21002220,106.140,49.683,-7.080
21010000,106.140,49.683,-7.080
21010010,106.140,49.683,-7.080
21010020,106.262,47.913,-2.808
21010100,106.262,47.913,-2.808
21010110,102.783,43.701,1.709
21010120,102.783,43.701,1.709
21010200,102.783,43.701,1.709
21010210,93.445,38.513,6.714
21010220,93.445,38.513,6.714
21011000,93.445,38.513,6.714
21011010,81.848,35.828,10.742
21011020,81.848,35.828,10.742
21011100,81.848,35.828,10.742
21011110,72.876,36.560,13.855
21011120,72.876,36.560,13.855
21011200,72.876,36.560,15.320
21011210,65.186,38.452,15.320
21011220,65.186,38.452,15.320
21012000,59.448,41.870,13.855
21012010,59.448,41.870,13.855
21012020,59.448,41.870,13.855
21012100,56.213,49.011,9.888
21012110,56.213,49.011,9.888
21012120,56.213,49.011,9.888
21012200,56.396,60.669,6.287
21012210,56.396,60.669,6.287
21012220,56.396,60.669,6.287
21020000,56.335,72.998,3.174
21020010,56.335,72.998,3.174
21020020,56.335,83.008,-0.488
21020100,56.519,83.008,-0.488
21020110,56.519,83.008,-0.488
21020121,57.922,88.196,-4.272
21020201,57.922,88.196,-4.272
21020211,57.922,88.196,-4.272
21020221,58.044,87.585,-9.949
21021001,58.044,87.585,-9.949
21021011,58.044,87.585,-15.198
21021021,56.335,83.313,-15.198
21021101,56.335,83.313,-15.198
21021111,54.626,78.491,-18.921
21021121,54.626,78.491,-18.921
21021202,54.626,78.491,-18.921
21021212,51.819,75.134,-20.813
21021222,51.819,75.134,-20.813
21022002,51.819,75.134,-20.813
21022012,48.340,73.303,-20.325
21022022,48.340,73.303,-20.325
21022102,44.373,70.557,-17.456
21022112,44.373,70.557,-17.456
21022200,44.373,70.557,-17.456
21022210,37.720,65.674,-14.832
21022220,37.720,65.674,-14.832
21100000,37.720,65.674,-14.832
21100010,31.433,58.899,-12.817
21100020,31.433,58.899,-12.817
21100100,26.855,51.025,-10.498
21100110,26.855,51.025,-10.498
21100120,26.855,51.025,-10.498
21100201,21.545,42.603,-7.568
21100211,21.545,42.603,-7.568
21100221,21.545,42.603,-7.568
21101001,16.846,35.217,-4.700
21101011,16.846,35.217,-4.700
21101021,16.846,19.592,-2.319
21101101,13.489,30.884,-2.319
21101111,13.489,30.884,-2.319
21101121,10.498,28.870,0.366
21101201,10.498,28.870,0.366
21101211,10.498,28.870,0.366
21101221,6.653,26.306,3.845
21102001,6.653,26.306,3.845
21102011,6.653,26.306,3.845
21102021,4.700,21.790,9.583
21102101,4.700,21.790,9.583
21102111,4.700,21.790,9.583
21102121,2.930,13.916,16.296
21102201,2.930,13.916,16.296
21102211,-1.038,4.211,21.606
21102222,-1.038,4.211,21.606
21110002,-1.038,4.211,21.606
21110012,-5.249,-4.089,23.743
21110022,-5.249,-4.089,23.743
21110102,-5.249,-4.089,23.743
21110112,-8.179,-9.705,22.339
21110122,-8.179,-9.705,22.339
21110210,-11.108,-12.512,17.761
21110220,-11.108,-12.512,17.761
21111000,-11.108,-12.512,17.761
21111010,-16.052,-12.451,13.123
21111020,-16.052,-12.451,13.123
21111100,-16.052,-12.451,13.123
21111110,-21.973,-10.742,9.033
21111121,-21.973,-10.742,9.033
21111201,-26.489,-9.277,5.859
21111211,-26.489,-9.277,5.859
21111221,-26.489,-9.277,5.859
21112001,-27.649,-10.437,3.845
21112012,-27.649,-10.437,3.845
21112022,-27.649,-10.437,3.174
21112102,-24.597,-15.930,3.174
21112112,-24.597,-15.930,3.174
21112200,-20.386,-25.024,5.554
21112210,-20.386,-25.024,5.554
21112220,-20.386,-25.024,5.554
21120000,-16.785,-35.645,10.498
21120010,-16.785,-35.645,10.498
21120021,-14.038,-47.852,15.381
21120101,-14.038,-47.852,15.381
21120111,-14.038,-47.852,15.381
21120121,-12.695,-61.340,19.043
21120201,-12.695,-61.340,19.043
21120212,-12.695,-61.340,19.043
21120222,-12.512,-73.364,20.813
21121002,-12.512,-73.364,20.813
21121012,-15.259,-81.726,19.714
21121022,-15.259,-81.726,19.714
21121102,-15.259,-81.726,19.714
21121120,-16.663,-87.708,16.541
21121200,-16.663,-87.708,16.541
21121210,-16.663,-87.708,11.719
21121220,-18.799,-91.248,11.719
21122000,-18.799,-91.248,11.719
21122010,-21.912,-92.346,6.042
21122021,-21.912,-92.346,6.042
21122101,-21.912,-92.346,6.042
21122111,-24.902,-90.576,1.770
21122121,-24.902,-90.576,1.770
21122201,-27.466,-86.548,-0.610
21122212,-27.466,-86.548,-0.610
21122222,-27.466,-86.548,-0.610
21200002,-29.663,-81.909,-1.892
21200020,-29.663,-81.909,-1.892
21200100,-29.663,-78.491,-2.869
21200110,-31.433,-78.491,-2.869
21200121,-31.433,-78.491,-2.869
21200201,-32.959,-78.369,-5.737
21200211,-32.959,-78.369,-5.737
21200222,-32.959,-78.369,-9.888
21201002,-34.912,-81.421,-9.888
21201012,-34.912,-81.421,-9.888
21201022,-38.330,-88.501,-14.832
21201110,-38.330,-88.501,-14.832
21201120,-38.330,-88.501,-14.832
21201200,-41.138,-98.511,-18.921
21201211,-41.138,-98.511,-18.921
21201221,-40.405,-109.863,-22.705
21202001,-40.405,-109.863,-22.705
21202012,-40.405,-109.863,-22.705
21202022,-37.476,-122.009,-27.344
21202102,-37.476,-122.009,-27.344
21202120,-34.546,-133.911,-31.555
21202200,-34.546,-133.911,-31.555
21202210,-34.546,-133.911,-31.555
21202220,-31.677,-144.653,-35.034
21210001,-31.677,-144.653,-35.034
21210011,-27.649,-157.349,-39.673
21210021,-27.649,-157.349,-39.673
21210101,-27.649,-157.349,-39.673
21210112,-26.245,-174.316,-45.959
21210122,-26.245,-174.316,-45.959
21210202,-26.245,-188.965,-52.185
21210220,-29.297,-188.965,-52.185
21211000,-29.297,-188.965,-52.185
21211010,-38.147,-194.397,-57.617
21211020,-38.147,-194.397,-57.617
21211101,-38.147,-194.397,-61.768
21211111,-49.866,-188.965,-61.768
21211121,-49.866,-188.965,-61.768
21211202,-59.937,-172.363,-59.448
21211212,-59.937,-172.363,-59.448
21211222,-59.937,-172.363,-59.448
21212010,-64.087,-150.208,-52.368
21212020,-64.087,-150.208,-52.368
21212100,-68.604,-134.949,-44.006
21212111,-68.604,-134.949,-44.006
21212121,-68.604,-134.949,-44.006
21212201,-78.430,-134.827,-33.997
21212212,-78.430,-134.827,-33.997
21212222,-88.806,-145.569,-23.987
21220002,-88.806,-145.569,-23.987
21220020,-88.806,-145.569,-23.987
21220100,-101.135,-159.851,-11.780
21220110,-101.135,-159.851,-11.780
21220121,-115.662,-168.701,0.061
21220201,-115.662,-168.701,0.061
21220211,-115.662,-168.701,0.061
21220221,-130.005,-166.626,6.226
21221001,-130.005,-166.626,6.226
21221012,-147.766,-157.837,3.906
21221022,-147.766,-157.837,3.906
21221102,-147.766,-157.837,3.906
21221112,-170.349,-147.644,-7.446
21221122,-170.349,-147.644,-7.446
21221210,-170.349,-147.644,-23.071
21221220,-193.420,-130.005,-22.217
21222000,-193.420,-130.005,-22.217
21222011,-219.421,-101.257,-29.602
21222021,-219.421,-101.257,-29.602
21222101,-219.421,-101.257,-29.602
21222111,-236.694,-55.908,-28.503
21222122,-236.694,-55.908,-28.503
21222202,-238.831,-3.845,-24.292
21222212,-238.831,-3.845,-24.292
21222222,-238.831,-3.845,-24.292
22000010,-235.168,31.128,-24.414
22000020,-235.168,31.128,-24.414
22000100,-219.543,43.274,-26.855
22000110,-224.792,43.274,-26.855
22000120,-224.792,43.274,-26.855
22000201,-207.092,41.748,-28.503
22000211,-207.092,41.748,-28.503
22000221,-207.092,41.748,-28.503
22001001,-186.279,33.569,-31.494
22001011,-186.279,33.569,-31.494
22001021,-163.513,22.827,-34.058
22001102,-163.513,22.827,-34.058
22001112,-163.513,22.827,-34.058
22001122,-139.160,11.963,-34.851
22001202,-139.160,11.963,-34.851
22001212,-139.160,11.963,-34.851
22002000,-118.896,2.625,-34.790
22002010,-118.896,2.625,-34.790
22002020,-107.056,-6.592,-35.706
22002100,-107.056,-6.592,-35.706
22002110,-107.056,-6.592,-35.706
22002121,-105.225,-13.977,-35.950
22002201,-105.225,-13.977,-35.950
22002211,-113.464,-13.428,-29.297
22002222,-113.464,-13.428,-29.297
22010002,-113.464,-13.428,-29.297
22010012,-116.150,-7.507,-14.404
22010100,-116.150,-7.507,-14.404
22010110,-116.150,-6.531,0.000
22010120,-109.985,-6.531,0.000
22010200,-109.985,-6.531,0.000
22010210,-97.595,-10.925,5.798
22010221,-97.595,-10.925,5.798
22011001,-97.595,-10.925,5.798
22011011,-80.750,-12.878,4.578
22011021,-80.750,-12.878,4.578
22011101,-64.148,-6.165,1.770
22011111,-64.148,-6.165,1.770
22011122,-64.148,-6.165,1.770
22011202,-46.509,8.362,-1.282
22011212,-46.509,8.362,-1.282
22011222,-46.509,8.362,-1.282
22012002,-30.457,26.733,-4.944
22012020,-30.457,26.733,-4.944
22012100,-17.090,47.058,-9.521
22012110,-17.090,47.058,-9.521
22012120,-17.090,47.058,-9.521
22012200,-4.639,70.129,-14.099
22012210,-4.639,70.129,-14.099
22012220,-4.639,70.129,-18.372
22020001,7.202,91.248,-18.372
22020011,7.202,91.248,-18.372
22020021,19.958,104.309,-19.897
22020101,19.958,104.309,-19.897
22020111,19.958,104.309,-19.897
22020121,32.776,106.262,-17.273
22020201,32.776,106.262,-17.273
22020211,32.776,106.262,-17.273
22020221,43.579,99.426,-13.062
22021002,43.579,99.426,-13.062
22021012,52.002,90.271,-11.841
22021022,52.002,90.271,-11.841
22021102,52.002,90.271,-11.841
22021112,61.462,83.252,-11.230
22021122,61.462,83.252,-11.230
22021202,61.462,83.252,-11.230
22021212,72.083,79.285,-10.071
22021222,72.083,79.285,-10.071
22022002,72.083,80.750,-8.301
22022012,80.872,80.750,-8.301
22022100,80.872,80.750,-8.301
22022110,87.646,84.778,-6.226
22022120,87.646,84.778,-6.226
22022200,87.646,84.778,-6.226
22022210,92.651,91.125,-6.470
22022220,92.651,91.125,-6.470
22100000,92.651,91.125,-9.705
22100010,96.191,98.877,-9.705
22100021,96.191,98.877,-9.705
22100101,97.473,105.103,-13.916
22100111,97.473,105.103,-13.916
22100121,97.473,105.103,-13.916
22100201,95.581,108.948,-17.578
22100211,95.581,108.948,-17.578
22100221,95.581,108.948,-17.578
22101001,92.590,112.122,-17.700
22101011,92.590,112.122,-17.700
22101021,93.018,111.511,-18.372
22101101,93.018,111.511,-18.372
22101112,93.018,111.511,-18.372
22101122,95.520,107.056,-21.118
22101202,95.520,107.056,-21.118
22101212,95.520,107.056,-21.118
22101222,100.586,100.342,-23.865
22102002,100.586,100.342,-23.865
22102012,100.586,91.675,-22.827
22102022,107.361,91.675,-22.827
22102102,107.361,91.675,-22.827
22102112,115.356,80.688,-18.616
22102122,115.356,80.688,-18.616
22102210,115.356,80.688,-18.616
22102220,125.854,66.345,-14.587
22110000,125.854,66.345,-14.587
22110010,125.854,66.345,-14.587
22110020,137.695,49.500,-12.085
22110100,137.695,49.500,-12.085
22110110,146.973,37.048,-10.803
22110120,146.973,37.048,-10.803
22110200,146.973,37.048,-10.803
22110210,151.123,33.264,-10.681
22110221,151.123,33.264,-10.681
22111001,151.123,33.264,-10.681
22111011,151.733,37.109,-12.817
22111021,151.733,37.109,-12.817
22111101,151.733,43.884,-16.846
22111111,151.123,43.884,-16.846
22111121,151.123,43.884,-16.846
22111201,148.804,50.598,-22.339
22111211,148.804,50.598,-22.339
22111221,148.804,50.598,-22.339
22112002,142.822,57.617,-27.649
22112012,142.822,57.617,-27.649
22112022,142.822,57.617,-31.982
22112102,134.705,66.467,-31.982
22112112,134.705,66.467,-31.982
22112122,126.465,73.059,-33.691
22112202,126.465,73.059,-33.691
22112212,126.465,73.059,-33.691
22112222,121.033,75.684,-31.311
22120002,121.033,75.684,-31.311
22120020,121.033,75.684,-31.311
22120100,118.896,75.073,-26.123
22120110,118.896,75.073,-26.123
22120120,118.835,71.716,-19.470
22120200,118.835,71.716,-19.470
22120210,118.835,71.716,-19.470
22120220,118.591,67.322,-11.047
22121000,118.591,67.322,-11.047
22121010,118.591,67.322,-11.047
22121020,118.347,62.744,-1.587
22121100,118.347,62.744,-1.587
22121111,118.347,57.617,9.033
22121121,119.812,57.617,9.033
22121201,119.812,57.617,9.033
22121211,121.399,50.842,19.226
22121221,121.399,50.842,19.226
22122001,121.399,50.842,19.226
22122011,121.643,44.189,28.137
22122021,121.643,44.189,28.137
22122101,121.643,44.189,28.137
22122111,120.728,38.269,35.400
22122121,120.728,38.269,35.400
22122201,120.728,38.269,35.400
22122211,117.798,32.593,40.100
22122221,117.798,32.593,40.100
22200001,112.610,28.503,41.687
22200011,112.610,28.503,41.687
22200021,112.610,28.503,41.687
22200101,106.140,29.175,40.466
22200111,106.140,29.175,40.466
22200121,106.140,29.175,40.466
22200201,99.060,35.278,37.659
22200211,99.060,35.278,37.659
22200221,99.060,35.278,37.659
22201001,90.881,44.006,34.241
22201011,90.881,44.006,34.241
22201021,90.881,44.006,34.241
22201101,81.909,52.612,30.701
22201111,81.909,52.612,30.701
22201121,72.937,61.218,27.161
22201201,72.937,61.218,27.161
22201211,72.937,61.218,27.161
22201221,65.796,68.726,24.353
22202001,65.796,68.726,24.353
22202011,65.796,68.726,24.353
22202021,60.974,72.083,22.217
22202101,60.974,72.083,22.217
22202111,60.974,72.083,22.217
22202121,57.861,70.435,20.020
22202201,57.861,70.435,20.020
22202211,57.861,70.435,20.020
22202221,55.237,65.491,17.151
22210001,55.237,65.491,17.151
22210011,51.025,59.570,12.817
22210021,51.025,59.570,12.817
22210101,51.025,59.570,12.817
22210111,46.509,54.871,8.911
22210121,46.509,54.871,8.911
22210201,46.509,54.871,8.911
22210211,43.701,50.537,6.897
22210221,43.701,50.537,6.897
22211001,43.701,50.537,6.897
22211011,39.734,45.044,7.507
22211021,39.734,45.044,7.507
22211101,39.734,45.044,11.414
22211111,34.973,36.804,11.414
22211121,34.973,36.804,11.414
22211201,30.640,26.672,16.724
22211211,30.640,26.672,16.724
22211221,30.640,26.672,16.724
22212001,26.367,16.296,21.912
22212011,26.367,16.296,21.912
22212021,26.367,16.296,21.912
22212101,20.386,6.958,25.879
22212111,20.386,6.958,25.879
22212121,20.386,6.958,25.879
22212201,14.465,0.183,28.870
22212211,14.465,0.183,28.870
22212221,14.465,-15.442,30.273
22220001,8.606,-4.944,30.273
22220011,8.606,-4.944,30.273
22220021,2.014,-9.094,30.212
22220101,2.014,-9.094,30.212
22220111,2.014,-9.094,30.212
22220121,-5.005,-12.146,28.687
22220201,-5.005,-12.146,28.687
22220211,-5.005,-12.146,28.687
22220221,-11.780,-13.306,26.611
22221002,-11.780,-13.306,26.611
22221012,-17.334,-13.550,24.658
22221022,-17.334,-13.550,24.658
22221102,-17.334,-13.550,24.658
22221112,-19.409,-13.062,24.048
22221200,-19.409,-13.062,24.048
22221210,-19.409,-13.062,24.048
22221220,-20.081,-11.658,25.513
22222000,-20.081,-11.658,25.513
22222010,-19.287,-10.925,26.733
22222020,-19.287,-10.925,26.733
22222101,-19.287,-10.925,26.733
22222111,-15.808,-13.672,25.818
22222121,-15.808,-13.672,25.818
22222201,-15.808,-21.545,23.621
22222211,-11.597,-21.545,23.621
22222221,-11.597,-21.545,23.621
100000002,-8.850,-32.898,21.729
100000012,-8.850,-32.898,21.729
100000022,-8.850,-32.898,21.729
100000102,-7.202,-43.274,21.667
100000112,-7.202,-43.274,21.667
100000200,-5.859,-51.453,23.743
100000210,-5.859,-51.453,23.743
100000220,-5.859,-51.453,23.743
100001000,-4.883,-59.387,26.184
100001010,-4.883,-59.387,26.184
100001021,-4.883,-59.387,26.184
100001101,-4.578,-67.139,27.710
100001111,-4.578,-67.139,27.710
100001121,-5.005,-74.219,28.259
100001201,-5.005,-74.219,28.259
100001212,-5.005,-74.219,28.259
100001222,-7.080,-79.895,27.222
100002002,-7.080,-79.895,27.222
100002012,-7.080,-82.458,24.048
100002022,-11.780,-82.458,24.048
100002102,-11.780,-82.458,24.048
100002120,-18.494,-81.726,18.555
100002200,-18.494,-81.726,18.555
100002210,-18.494,-81.726,18.555
100002220,-26.978,-78.247,11.292
100010000,-26.978,-78.247,11.292
100010010,-42.603,-71.289,4.456
100010020,-37.842,-71.289,4.456
100010101,-37.842,-71.289,4.456
100010111,-50.171,-61.768,-1.343
100010121,-50.171,-61.768,-1.343
100010201,-50.171,-61.768,-1.343
100010212,-63.721,-52.490,-6.775
100010222,-63.721,-52.490,-6.775
100011002,-77.393,-45.532,-12.207
100011012,-77.393,-45.532,-12.207
100011100,-77.393,-45.532,-12.207
100011110,-89.661,-41.870,-16.174
100011120,-89.661,-41.870,-16.174
100011201,-100.830,-40.344,-16.846
100011211,-100.830,-40.344,-16.846
100011221,-100.830,-40.344,-16.846
100012001,-107.727,-37.903,-16.968
100012012,-107.727,-37.903,-16.968
100012022,-107.727,-35.950,-17.944
100012102,-111.389,-35.950,-17.944
100012112,-111.389,-35.950,-17.944
100012200,-112.549,-34.973,-18.555
100012210,-112.549,-34.973,-18.555
100012220,-112.549,-34.973,-18.188
100020001,-112.244,-35.583,-18.188
100020011,-112.244,-35.583,-18.188
100020021,-108.765,-38.818,-15.015
100020102,-108.765,-38.818,-15.015
100020112,-108.765,-38.818,-15.015
100020122,-102.112,-46.082,-10.376
100020202,-102.112,-46.082,-10.376
100020220,-93.018,-56.152,-7.507
100021000,-93.018,-56.152,-7.507
100021010,-93.018,-56.152,-7.507
100021021,-82.947,-66.589,-4.395
100021101,-82.947,-66.589,-4.395
100021111,-75.928,-72.144,-1.221
100021122,-75.928,-72.144,-1.221
100021202,-75.928,-72.144,-1.221
100021212,-74.036,-70.190,5.432
100021222,-74.036,-70.190,5.432
100022002,-78.003,-63.721,17.273
100022020,-78.003,-63.721,17.273
100022100,-78.003,-63.721,17.273
100022110,-82.336,-58.777,29.785
100022120,-82.336,-58.777,29.785
100022200,-82.336,-58.777,29.785
100022211,-82.092,-60.547,39.978
100022221,-82.092,-60.547,39.978
100100001,-79.529,-69.153,47.241
100100011,-79.529,-69.153,47.241
100100021,-79.529,-69.153,47.241
100100102,-77.759,-80.444,50.415
100100112,-77.759,-80.444,50.415
100100122,-77.759,-80.444,47.668
100100202,-74.829,-83.130,47.668
100100212,-74.829,-83.130,47.668
100100222,-81.543,-82.458,38.818
100101010,-81.543,-82.458,38.818
100101020,-81.543,-82.458,38.818
100101100,-85.754,-71.716,21.851
100101110,-85.754,-71.716,21.851
100101120,-85.754,-55.420,16.663
100101201,-102.539,-55.420,16.663
100101211,-102.539,-55.420,16.663
100101221,-129.883,-46.509,29.724
100102001,-129.883,-46.509,29.724
100102011,-129.883,-46.509,29.724
100102022,-146.973,-48.157,41.809
100102102,-146.973,-48.157,41.809
100102112,-150.085,-53.284,37.659
100102122,-150.085,-53.284,37.659
100102202,-150.085,-53.284,37.659
100102220,-149.536,-60.181,31.921
100110000,-149.536,-60.181,31.921
100110010,-149.536,-75.806,27.649
100110020,-143.066,-66.223,27.649
100110100,-143.066,-66.223,27.649
100110111,-133.789,-65.063,20.325
100110121,-133.789,-65.063,20.325
100110201,-133.789,-65.063,20.325
100110211,-127.747,-54.993,11.658
100110222,-127.747,-54.993,11.658
100111002,-122.803,-39.612,3.662
100111012,-122.803,-39.612,3.662
100111022,-122.803,-39.612,3.662
100111102,-115.662,-27.283,-2.441
100111120,-115.662,-27.283,-2.441
100111200,-115.662,-27.283,-5.127
100111210,-109.741,-21.973,-5.127
100111220,-109.741,-21.973,-5.127
100112001,-106.750,-21.790,-1.099
100112011,-106.750,-21.790,-1.099
100112021,-106.750,-21.790,-1.099
100112102,-107.544,-22.217,8.240
100112112,-107.544,-22.217,8.240
100112122,-109.619,-22.766,16.724
100112202,-109.619,-22.766,16.724
100112212,-109.619,-22.766,16.724
100112222,-109.375,-22.339,22.705
100120010,-109.375,-22.339,22.705
100120020,-109.375,-22.339,28.015
100120100,-101.929,-18.250,28.015
100120110,-101.929,-18.250,28.015
100120120,-85.632,-13.062,32.349
100120201,-85.632,-13.062,32.349
100120211,-85.632,-13.062,32.349
100120221,-66.345,-11.719,34.302
100121001,-66.345,-11.719,34.302
100121011,-48.645,-14.709,30.884
100121022,-48.645,-14.709,30.884
100121102,-48.645,-14.709,30.884
100121112,-31.494,-19.592,24.170
100121122,-31.494,-19.592,24.170
100121202,-31.494,-19.592,24.170
100121212,-15.686,-24.536,17.883
100122000,-15.686,-24.536,17.883
100122010,-2.380,-27.344,13.916
100122020,-2.380,-27.344,13.916
100122100,-2.380,-27.344,13.916
100122110,6.897,-25.879,9.338
100122120,6.897,-25.879,9.338
100122200,6.897,-25.879,9.338
100122211,12.207,-18.677,2.258
100122221,12.207,-18.677,2.258
100200001,16.541,-4.211,-5.554
100200011,16.541,-4.211,-5.554
100200021,16.541,-4.211,-5.554
100200101,19.897,15.381,-16.724
100200111,19.897,15.381,-16.724
100200122,19.897,15.381,-16.724
100200202,26.367,38.391,-28.015
100200212,26.367,38.391,-28.015
100200222,37.170,58.899,-35.767
100201002,37.170,58.899,-35.767
100201012,37.170,58.899,-35.767
100201022,47.302,70.679,-39.185
100201102,47.302,70.679,-39.185
100201112,47.302,70.679,-39.185
100201122,56.519,73.181,-38.574
100201202,56.519,73.181,-38.574
100201220,56.519,72.937,-37.476
100202000,67.871,72.937,-37.476
100202010,67.871,72.937,-37.476
100202020,78.918,75.134,-35.522
100202100,78.918,75.134,-35.522
100202110,78.918,75.134,-35.522
100202120,87.280,81.665,-31.982
100202200,87.280,81.665,-31.982
100202210,87.280,81.665,-16.357
100202221,91.797,88.806,-30.090
100210001,91.797,88.806,-30.090
100210011,93.872,93.445,-32.593
100210021,93.872,93.445,-32.593
100210101,93.872,93.445,-32.593
100210111,96.130,96.558,-37.781
100210121,96.130,96.558,-37.781
100210201,96.130,96.558,-37.781
100210211,98.450,98.938,-46.204
100210221,98.450,98.938,-46.204
100211002,100.098,99.548,-56.152
100211012,100.098,99.548,-56.152
100211022,100.098,99.548,-56.152
100211102,102.295,98.267,-63.171
100211112,102.295,98.267,-63.171
100211122,102.295,98.267,-63.171
100211202,105.469,96.130,-66.833
100211212,105.469,96.130,-66.833
100211222,105.469,96.130,-66.833
100212002,108.643,91.553,-69.153
100212012,108.643,91.553,-69.153
100212022,111.267,84.839,-70.496
100212102,111.267,84.839,-70.496
100212120,111.267,84.839,-70.496
100212200,115.662,77.454,-70.740
100212210,115.662,77.454,-70.740
100212220,115.662,77.454,-70.740
100220000,121.399,70.496,-69.641
100220010,121.399,70.496,-69.641
100220020,129.333,64.087,-66.284
100220100,129.333,64.087,-66.284
100220110,129.333,64.087,-66.284
100220121,139.099,56.702,-60.303
100220201,139.099,56.702,-60.303
100220211,139.099,56.702,-60.303
100220221,148.560,47.729,-52.307
100221001,148.560,47.729,-52.307
100221011,148.560,32.104,-43.091
100221021,156.250,38.696,-43.091
100221101,156.250,38.696,-43.091
100221111,160.034,30.640,-35.767
100221121,160.034,30.640,-35.767
100221201,160.034,30.640,-35.767
100221211,157.776,24.109,-31.799
100221222,157.776,24.109,-31.799
100222002,157.776,24.109,-31.799
100222012,151.184,20.264,-30.640
100222022,151.184,20.264,-30.640
100222102,143.921,20.081,-30.151
100222112,143.921,20.081,-30.151
100222122,143.921,20.081,-30.151
100222202,139.648,22.095,-29.114
100222212,139.648,22.095,-29.114
101000000,139.648,22.095,-29.114
101000010,139.099,23.987,-26.001
101000020,139.099,23.987,-26.001
101000100,154.724,23.926,-18.372
101000110,142.029,23.926,-18.372
101000120,142.029,23.926,-18.372
101000200,146.545,20.691,-8.179
101000210,146.545,20.691,-8.179
101000220,146.545,20.691,-8.179
101001000,150.146,14.893,-0.122
101001010,150.146,14.893,-0.122
101001021,150.146,14.893,6.653
101001101,151.611,9.705,6.653
101001111,151.611,9.705,6.653
101001121,148.926,9.583,11.658
101001201,148.926,9.583,11.658
101001211,148.926,9.583,11.658
101001221,144.592,8.545,14.404
101002001,144.592,8.545,14.404
101002011,144.592,8.545,14.404
101002021,136.597,6.653,15.137
101002101,136.597,6.653,15.137
101002111,136.597,6.653,15.137
101002121,126.526,5.737,14.099
101002201,126.526,5.737,14.099
101002211,126.526,5.737,11.780
101002221,117.798,5.615,11.780
101010001,117.798,5.615,11.780
101010011,108.826,4.395,9.155
101010021,108.826,4.395,9.155
101010101,108.826,4.395,9.155
101010110,100.952,3.174,6.897
101010120,100.952,3.174,6.897
101010200,100.952,3.174,6.897
101010210,92.346,3.113,2.380
101010221,92.346,3.113,2.380
101011001,92.346,3.113,2.380
101011011,86.304,5.005,-3.357
101011021,86.304,5.005,-3.357
101011101,83.435,10.132,-8.789
101011111,83.435,10.132,-8.789
101011121,83.435,10.132,-8.789
101011201,80.627,19.775,-10.803
101011211,80.627,19.775,-10.803
101011221,80.627,19.775,-10.803
101012001,75.745,31.799,-8.606
101012012,75.745,31.799,-8.606
101012022,75.745,45.044,-4.822
101012102,72.693,45.044,-4.822
101012112,72.693,45.044,-4.822
101012122,73.792,57.251,-3.723
101012202,73.792,57.251,-3.723
101012212,73.792,57.251,-3.723
101012222,76.904,62.805,-6.287
101020010,76.904,62.805,-6.287
101020020,76.904,62.805,-10.742
101020100,79.041,62.500,-10.742
101020110,79.041,62.500,-10.742
101020120,79.346,59.387,-13.672
101020200,79.346,59.387,-13.672
101020210,79.346,59.387,-13.672
101020220,75.195,52.979,-14.038
101021000,75.195,52.979,-14.038
101021010,75.195,52.979,-14.038
101021020,69.580,45.837,-12.451
101021101,69.580,45.837,-12.451
101021111,63.904,39.063,-11.780
101021121,63.904,39.063,-11.780
101021201,63.904,39.063,-11.780
101021211,55.359,31.738,-14.343
101021221,55.359,31.738,-14.343
101022001,55.359,31.738,-14.343
101022011,44.678,25.940,-17.334
101022021,44.678,25.940,-17.334
101022101,44.678,25.940,-16.663
101022112,33.325,25.513,-16.663
101022122,33.325,25.513,-16.663
101022202,20.142,30.884,-14.404
101022212,20.142,30.884,-14.404
101022222,20.142,30.884,-14.404
101100002,5.615,39.795,-13.611
101100012,5.615,39.795,-13.611
101100022,5.615,39.795,-13.611
101100102,-5.432,53.223,-14.465
101100120,-5.432,53.223,-14.465
101100200,-12.573,65.796,-15.259
101100210,-12.573,65.796,-15.259
101100220,-12.573,65.796,-15.259
101101001,-14.160,69.214,-14.526
101101011,-14.160,69.214,-14.526
101101021,-14.160,61.951,-9.705
101101101,-9.583,61.951,-9.705
101101111,-9.583,61.951,-9.705
101101121,-1.160,44.067,-1.526
101101202,-1.160,44.067,-1.526
101101212,-1.160,44.067,-1.526
101101222,6.165,17.822,9.949
101102002,6.165,17.822,9.949
101102012,6.165,-7.263,22.644
101102022,11.047,-7.263,22.644
101102102,11.047,-7.263,22.644
101102112,9.888,-26.001,32.471
101102122,9.888,-26.001,32.471
101102202,9.888,-26.001,32.471
101102220,4.272,-37.231,39.307
101110000,4.272,-37.231,39.307
101110010,4.272,-37.231,39.307
101110020,-0.732,-40.955,44.067
101110100,-0.732,-40.955,44.067
101110110,-7.324,-36.072,42.603
101110120,-7.324,-36.072,42.603
101110200,-7.324,-36.072,42.603
101110211,-12.756,-27.771,36.865
101110221,-12.756,-27.771,36.865
101111001,-12.756,-27.771,30.945
101111011,-16.479,-20.020,30.945
101111021,-16.479,-20.020,30.945
101111102,-20.020,-15.442,25.574
101111112,-20.020,-15.442,25.574
101111122,-20.020,-15.442,25.574
101111202,-18.860,-12.146,23.560
101111212,-18.860,-12.146,23.560
101111222,-3.235,-8.972,25.696
101112010,-13.062,-8.972,25.696
101112020,-13.062,-8.972,25.696
101112100,-4.272,-7.568,30.090
101112110,-4.272,-7.568,30.090
101112120,-4.272,-7.568,30.090
101112200,5.981,-8.789,34.790
101112210,5.981,-8.789,34.790
101112221,13.916,-14.709,36.804
101120001,13.916,-14.709,36.804
101120011,13.916,-14.709,36.804
101120021,17.883,-22.156,35.461
101120101,17.883,-22.156,35.461
101120111,17.883,-22.156,35.461
101120121,19.775,-25.452,30.090
101120202,19.775,-25.452,30.090
101120212,19.775,-23.132,20.874
101120222,17.334,-23.132,20.874
101121002,17.334,-23.132,20.874
101121012,14.648,-13.916,10.498
101121022,14.648,-13.916,10.498
101121102,14.648,-13.916,10.498
101121112,14.893,-1.648,2.136
101121122,14.893,-1.648,2.136
101121202,14.893,-1.648,-13.489
101121220,16.113,7.385,-2.075
101122000,16.113,7.385,-2.075
101122010,17.090,9.766,-1.465
101122020,17.090,9.766,-1.465
101122100,17.090,9.766,-1.465
101122110,18.555,4.822,4.578
101122120,18.555,4.822,4.578
101122200,18.555,4.822,4.578
101122210,20.630,-5.005,13.245
101122220,20.630,-5.005,13.245
101200000,20.630,-17.212,20.691
101200010,24.109,-17.212,20.691
101200021,24.109,-17.212,20.691
101200101,27.893,-27.588,26.184
101200111,27.893,-27.588,26.184
101200121,27.893,-27.588,26.184
101200201,30.640,-33.936,29.724
101200211,30.640,-33.936,29.724
101200221,30.640,-33.936,29.968
101201001,35.461,-37.964,29.968
101201011,35.461,-37.964,29.968
101201021,40.283,-41.443,23.865
101201102,40.283,-41.443,23.865
101201112,40.283,-41.443,23.865
101201122,36.743,-43.884,8.911
101201202,36.743,-43.884,8.911
101201212,36.743,-43.884,8.911
101201222,29.114,-41.443,-10.071
101202002,29.114,-41.443,-10.071
101202012,20.020,-32.898,-28.381
101202100,20.020,-32.898,-28.381
101202110,20.020,-32.898,-28.381
101202120,11.475,-20.630,-42.358
101202200,11.475,-20.630,-42.358
101202210,11.475,-20.630,-49.927
101202221,5.859,-10.376,-49.927
101210001,5.859,-10.376,-49.927
101210011,4.333,-5.249,-51.880
101210021,4.333,-5.249,-51.880
101210101,4.333,-5.249,-51.880
101210111,6.042,-5.493,-50.293
101210122,6.042,-5.493,-50.293
101210202,6.042,-9.644,-46.448
101210212,8.789,-9.644,-46.448
101210222,8.789,-9.644,-46.448
101211002,11.597,-14.954,-41.992
101211020,11.597,-14.954,-41.992
101211100,11.597,-14.954,-41.992
101211110,12.512,-19.958,-41.382
101211120,12.512,-19.958,-41.382
101211200,8.057,-24.109,-47.424
101211210,8.057,-24.109,-47.424
101211221,8.057,-24.109,-47.424
101212001,-0.488,-25.024,-57.434
101212011,-0.488,-25.024,-57.434
101212021,-0.488,-25.024,-73.059
101212102,-11.475,-21.240,-66.528
101212112,-11.475,-21.240,-66.528
101212122,-24.414,-12.939,-71.106
101212202,-24.414,-12.939,-71.106
101212220,-24.414,-12.939,-71.106
101220000,-37.415,-3.845,-70.557
101220010,-37.415,-3.845,-70.557
101220020,-50.293,2.014,-66.101
101220101,-50.293,2.014,-66.101
101220111,-50.293,2.014,-66.101
101220121,-59.631,3.296,-59.143
101220201,-59.631,3.296,-59.143
101220211,-59.631,3.296,-52.368
101220222,-66.467,1.526,-52.368
101221002,-66.467,1.526,-52.368
101221012,-71.594,-2.991,-46.997
101221022,-71.594,-2.991,-46.997
101221110,-71.594,-2.991,-46.997
101221120,-77.454,-8.057,-43.396
101221200,-77.454,-8.057,-43.396
101221210,-81.604,-12.451,-40.588
101221221,-81.604,-12.451,-40.588
101222001,-81.604,-12.451,-40.588
101222011,-84.473,-17.334,-39.551
101222021,-84.473,-17.334,-39.551
101222102,-87.219,-22.949,-39.734
101222112,-87.219,-22.949,-39.734
101222122,-87.219,-22.949,-39.734
101222210,-90.271,-29.480,-39.368
101222220,-90.271,-29.480,-39.368
102000000,-90.271,-29.480,-38.391
102000010,-93.323,-36.621,-38.391
102000020,-93.323,-36.621,-38.391
102000101,-95.703,-42.053,-36.377
102000111,-95.703,-42.053,-36.377
102000121,-95.703,-42.053,-36.377
102000202,-96.680,-44.922,-35.156
102000212,-96.680,-44.922,-35.156
102000222,-95.886,-42.480,-36.072
102001002,-95.886,-42.480,-36.072
102001020,-95.886,-42.480,-36.072
102001100,-94.116,-31.982,-38.452
102001110,-94.116,-31.982,-38.452
102001121,-90.515,-16.296,-39.490
102001201,-90.515,-16.296,-39.490
102001211,-90.515,-16.296,-39.490
102001221,-85.571,-4.822,-36.743
102002002,-85.571,-4.822,-36.743
102002012,-85.571,-3.967,-28.931
102002022,-77.393,-3.967,-28.931
102002102,-77.393,-3.967,-28.931
102002120,-68.970,-19.287,-12.024
102002200,-68.970,-19.287,-12.024
102002210,-68.970,-19.287,-12.024
102002220,-61.340,-50.049,13.184
102010001,-61.340,-50.049,13.184
102010011,-48.340,-85.266,44.861
102010021,-48.340,-85.266,44.861
102010101,-48.340,-85.266,44.861
102010111,-42.175,-119.385,64.758
102010122,-42.175,-119.385,64.758
102010202,-53.650,-140.503,72.266
102010212,-53.650,-140.503,72.266
102010222,-53.650,-140.503,72.266
102011010,-67.932,-140.259,69.824
102011020,-67.932,-140.259,69.824
102011100,-67.932,-140.259,69.824
102011110,-87.952,-121.216,62.134
102011120,-87.952,-121.216,62.134
102011201,-113.525,-89.111,60.669
102011211,-113.525,-89.111,60.669
102011221,-113.525,-89.111,60.669
102012001,-133.606,-58.289,64.880
102012011,-133.606,-58.289,64.880
102012022,-133.606,-43.884,65.674
102012102,-148.376,-43.884,65.674
102012112,-148.376,-43.884,65.674
102012122,-161.316,-41.260,64.514
102012202,-161.316,-41.260,64.514
102012220,-161.316,-41.260,64.514
102020000,-165.344,-35.522,61.646
102020010,-165.344,-35.522,61.646
102020020,-177.856,-31.311,66.956
102020101,-177.856,-31.311,66.956
102020111,-177.856,-31.311,66.956
102020121,-198.364,-32.349,78.491
102020201,-198.364,-32.349,78.491
102020211,-198.364,-32.349,80.261
102020222,-220.581,-39.795,80.261
102021002,-220.581,-39.795,80.261
102021012,-239.197,-53.589,71.167
102021022,-239.197,-53.589,71.167
102021102,-239.197,-53.589,71.167
102021112,-253.845,-68.665,56.824
102021200,-253.845,-68.665,56.824
102021210,-265.869,-75.989,37.842
102021220,-265.869,-75.989,37.842
102022000,-265.869,-75.989,37.842
102022010,-275.269,-59.143,26.306
102022021,-275.269,-59.143,26.306
102022101,-275.269,-59.143,26.306
102022111,-260.437,-21.423,26.794
102022121,-260.437,-21.423,26.794
102022202,-225.464,19.714,37.903
102022212,-225.464,19.714,37.903
102022222,-225.464,19.714,37.903
102100002,-181.519,42.175,51.758
102100012,-181.519,42.175,51.758
102100022,-181.519,42.175,51.758
102100102,-139.404,36.865,61.646
102100112,-139.404,36.865,61.646
102100122,-103.455,18.250,63.721
102100210,-103.455,18.250,63.721
102100220,-103.455,18.250,63.721
102101000,-82.764,0.793,62.378
102101010,-82.764,0.793,62.378
102101020,-82.764,0.793,62.378
102101100,-84.778,-14.771,61.218
102101110,-84.778,-14.771,61.218
102101120,-98.633,-24.780,57.007
102101201,-98.633,-24.780,57.007
102101211,-98.633,-24.780,57.007
102101221,-111.694,-27.588,48.950
102102001,-111.694,-27.588,48.950
102102011,-111.694,-27.588,48.950
102102022,-117.615,-28.625,36.804
102102102,-117.615,-28.625,36.804
102102112,-114.807,-32.227,21.179
102102122,-114.807,-32.227,21.179
102102202,-114.807,-32.227,21.179
102102220,-104.492,-36.621,5.615
102110000,-104.492,-36.621,5.615
102110010,-92.163,-33.936,-2.991
102110020,-92.163,-33.936,-2.991
102110101,-92.163,-33.936,-2.991
102110111,-85.388,-27.344,-3.967
102110121,-85.388,-27.344,-3.967
102110202,-85.388,-21.179,0.977
102110212,-79.773,-21.179,0.977
102110222,-79.773,-21.179,0.977
102111002,-62.866,-17.883,5.920
102111012,-62.866,-17.883,5.920
102111100,-62.866,-17.883,5.920
102111110,-48.706,-21.606,5.310
102111120,-48.706,-21.606,5.310
102111200,-44.434,-23.193,0.244
102111210,-44.434,-23.193,0.244
102111221,-44.434,-23.193,0.244
102112001,-40.283,-11.597,-7.019
102112011,-40.283,-11.597,-7.019
102112022,-40.283,11.108,-16.479
102112102,-39.734,11.108,-16.479
102112112,-39.734,11.108,-16.479
102112122,-44.800,42.725,-26.001
102112202,-44.800,42.725,-26.001
102112220,-44.800,42.725,-26.001
102120000,-46.875,76.355,-36.133
102120010,-46.875,76.355,-36.133
102120020,-37.415,104.309,-46.631
102120100,-37.415,104.309,-46.631
102120111,-37.415,104.309,-46.631
102120121,-19.287,122.070,-55.054
102120201,-19.287,122.070,-55.054
102120211,-19.287,122.070,-57.251
102120222,1.587,129.700,-57.251
102121002,1.587,129.700,-57.251
102121012,25.146,126.648,-56.335
102121022,25.146,126.648,-56.335
102121102,25.146,126.648,-56.335
102121112,49.194,113.647,-54.443
102121122,49.194,113.647,-54.443
102121202,49.194,113.647,-54.443
102121212,68.359,97.351,-53.162
102121222,68.359,97.351,-53.162
102122002,81.787,86.426,-54.871
102122020,81.787,86.426,-54.871
102122100,81.787,86.426,-54.871
102122110,88.867,85.632,-59.143
102122120,88.867,85.632,-59.143
102122200,88.867,85.632,-59.143
102122210,89.844,93.750,-64.636
102122220,89.844,93.750,-64.636
102200000,89.844,105.347,-70.740
102200010,85.388,105.347,-70.740
102200020,85.388,105.347,-70.740
102200101,78.613,115.906,-77.393
102200111,78.613,115.906,-77.393
102200121,78.613,115.906,-77.393
102200201,74.097,123.230,-83.862
102200211,74.097,123.230,-83.862
102200221,74.097,123.230,-83.862
102201001,72.693,125.793,-89.111
102201011,72.693,125.793,-89.111
102201021,75.623,122.375,-91.553
102201101,75.623,122.375,-91.553
102201111,75.623,122.375,-91.553
102201121,83.191,113.342,-91.064
102201202,83.191,113.342,-91.064
102201212,83.191,113.342,-91.064
102201222,93.018,100.281,-88.928
102202002,93.018,100.281,-88.928
102202012,103.516,85.449,-85.083
102202022,103.516,85.449,-85.083
102202102,103.516,85.449,-85.083
102202112,115.356,72.021,-79.712
102202122,115.356,72.021,-79.712
102202202,115.356,72.021,-79.712
102202212,124.817,60.608,-75.134
102210000,124.817,60.608,-75.134
102210010,124.817,60.608,-70.435
102210020,131.287,51.086,-70.435
102210100,131.287,51.086,-70.435
102210110,137.817,44.312,-63.293
102210120,137.817,44.312,-63.293
102210200,137.817,44.312,-63.293
102210210,141.418,37.292,-54.382
102210221,141.418,37.292,-54.382
102211001,141.418,37.292,-38.757
102211011,140.625,29.968,-45.105
102211021,140.625,29.968,-45.105
102211101,139.038,24.719,-35.950
102211111,139.038,24.719,-35.950
102211121,139.038,24.719,-35.950
102211201,138.367,21.301,-28.748
102211211,138.367,21.301,-28.748
102211221,138.367,21.301,-28.748
102212001,137.817,18.982,-24.475
102212012,137.817,18.982,-24.475
102212022,135.437,19.714,-23.315
102212102,135.437,19.714,-23.315
102212112,135.437,19.714,-23.315
102212122,131.042,25.208,-23.315
102212202,131.042,25.208,-23.315
102212212,131.042,25.208,-23.315
102212222,128.357,32.410,-22.400
102220002,128.357,32.410,-22.400
102220020,128.357,32.410,-20.203
102220100,128.662,38.147,-20.203
102220110,128.662,38.147,-20.203
102220120,130.127,38.879,-17.883
102220200,130.127,38.879,-17.883
102220210,130.127,38.879,-17.883
102220220,132.996,34.668,-16.052
102221000,132.996,34.668,-16.052
102221010,132.996,34.668,-16.052
102221020,135.193,29.297,-13.733
102221101,135.193,29.297,-13.733
102221111,135.620,25.208,-8.606
102221121,135.620,25.208,-8.606
102221201,135.620,25.208,-8.606
102221211,133.911,21.973,-3.723
102221221,133.911,21.973,-3.723
102222001,133.911,21.973,-3.723
102222011,127.747,20.813,-1.892
102222021,127.747,20.813,-1.892
102222101,112.122,22.034,-1.648
102222112,119.934,22.034,-1.648
102222122,119.934,22.034,-1.648
102222202,111.023,23.193,-2.686
102222212,111.023,23.193,-2.686
102222222,111.023,23.193,-2.686
110000002,103.149,23.315,-5.188
110000012,103.149,23.315,-5.188
110000022,103.149,23.315,-6.409
110000110,98.328,25.635,-6.409
110000120,98.328,25.635,-6.409
110000200,95.520,29.663,-6.104
110000210,95.520,29.663,-6.104
110000220,95.520,29.663,-6.104
110001000,95.459,33.447,-6.653
110001010,95.459,33.447,-6.653
110001020,95.459,33.447,-8.240
110001101,97.412,36.560,-8.240
110001111,97.412,36.560,-8.240
110001121,99.243,39.124,-9.644
110001201,99.243,39.124,-9.644
110001211,99.243,39.124,-9.644
110001221,100.891,39.734,-9.338
110002001,100.891,39.734,-9.338
110002011,100.891,39.734,-9.338
110002021,99.854,36.316,-7.141
110002102,99.854,36.316,-7.141
110002112,95.886,30.029,-5.371
110002122,95.886,30.029,-5.371
110002202,95.886,30.029,-5.371
110002212,91.064,23.010,-4.089
110002222,91.064,23.010,-4.089
110010002,91.064,23.010,-4.089
110010012,85.632,16.907,-2.625
110010022,85.632,16.907,-2.625
110010102,85.632,11.902,-1.587
110010112,78.186,11.902,-1.587
110010122,78.186,11.902,-1.587
110010202,67.627,10.437,-0.183
110010220,67.627,10.437,-0.183
110011000,67.627,10.437,-0.183
110011010,54.871,14.832,3.052
110011020,54.871,14.832,3.052
110011100,54.871,14.832,3.052
110011110,42.053,20.996,6.958
110011120,42.053,20.996,6.958
110011200,42.053,26.001,9.399
110011210,32.715,26.001,9.399
110011220,32.715,26.001,9.399
110012000,28.259,29.785,12.512
110012010,28.259,29.785,12.512
110012020,28.259,29.785,12.512
110012100,26.794,29.846,18.188
110012110,26.794,29.846,18.188
110012120,26.794,29.846,18.188
110012200,28.503,23.987,24.963
110012210,28.503,23.987,24.963
110012220,28.503,23.987,24.963
110020000,34.424,13.000,31.494
110020010,34.424,13.000,31.494
110020020,38.574,-1.770,36.926
110020100,38.574,-1.770,36.926
110020110,38.574,-1.770,36.926
110020120,38.452,-17.761,40.100
110020200,38.452,-17.761,40.100
110020210,38.452,-17.761,40.100
110020220,33.081,-28.442,39.307
110021001,33.081,-28.442,39.307
110021011,33.081,-28.992,33.997
110021021,22.949,-28.992,33.997
110021101,22.949,-28.992,33.997
110021111,10.010,-20.996,24.170
110021121,10.010,-20.996,24.170
110021201,10.010,-20.996,24.170
110021212,-0.732,-7.874,12.817
110021222,-0.732,-7.874,12.817
110022002,-0.732,7.751,4.639
110022012,-9.094,3.723,4.639
110022022,-9.094,3.723,4.639
110022102,-12.146,10.986,2.686
110022112,-12.146,10.986,2.686
110022122,-12.146,10.986,2.686
110022202,-9.277,13.428,9.216
110022212,-9.277,13.428,9.216
110100000,-9.277,13.428,24.841
110100010,-0.732,10.254,20.264
110100020,-0.732,10.254,20.264
110100100,12.573,-1.038,30.884
110100110,12.573,-1.038,30.884
110100120,12.573,-1.038,30.884
110100200,25.269,-18.799,37.231
110100210,25.269,-18.799,37.231
110100220,25.269,-18.799,37.231
110101000,32.043,-34.973,38.574
110101010,32.043,-34.973,38.574
110101021,32.043,-43.030,36.621
110101101,31.372,-43.030,36.621
110101111,31.372,-43.030,36.621
110101121,24.475,-44.800,32.471
110101201,24.475,-44.800,32.471
110101211,24.475,-44.800,32.471
110101221,12.512,-38.940,26.489
110102001,12.512,-38.940,26.489
110102011,12.512,-38.940,26.489
110102021,1.587,-29.480,20.081
110102101,1.587,-29.480,20.081
110102112,-5.371,-21.790,14.465
110102122,-5.371,-21.790,14.465
110102202,-5.371,-21.790,14.465
110102212,-6.165,-18.677,12.512
110102222,-6.165,-18.677,12.512
110110010,-6.165,-18.677,12.512
110110020,-3.357,-18.982,15.076
110110100,-3.357,-18.982,15.076
110110110,1.587,-20.508,19.775
110110120,1.587,-20.508,19.775
110110200,1.587,-20.508,19.775
110110210,7.629,-21.667,23.315
110110220,7.629,-21.667,23.315
110111001,7.629,-21.667,23.315
110111011,12.146,-24.780,25.208
110111021,12.146,-24.780,25.208
110111101,14.221,-29.602,26.062
110111111,14.221,-29.602,26.062
110111121,14.221,-29.602,26.062
110111201,16.663,-34.302,28.320
110111211,16.663,-34.302,28.320
110111221,16.663,-34.302,28.320
110112002,20.386,-38.452,31.555
110112012,20.386,-38.452,31.555
110112022,20.386,-44.189,32.227
110112102,23.865,-44.189,32.227
110112112,23.865,-44.189,32.227
110112122,26.367,-52.002,29.419
110112202,26.367,-52.002,29.419
110112212,26.367,-52.002,29.419
110112222,26.428,-58.411,23.254
110120002,26.428,-58.411,23.254
110120012,26.428,-58.411,14.221
110120100,25.513,-60.303,14.221
110120110,25.513,-60.303,14.221
110120120,25.696,-58.472,3.723
110120200,25.696,-58.472,3.723
110120210,25.696,-58.472,3.723
110120220,26.184,-53.162,-5.859
110121000,26.184,-53.162,-5.859
110121010,26.184,-53.162,-16.418
110121021,26.855,-46.021,-16.418
110121101,26.855,-46.021,-16.418
110121111,27.893,-38.330,-28.137
110121121,27.893,-38.330,-28.137
110121201,27.893,-38.330,-28.137
110121211,31.128,-30.029,-39.612
110121222,31.128,-30.029,-39.612
110122002,31.128,-30.029,-50.842
110122012,35.400,-23.132,-50.842
110122022,35.400,-23.132,-50.842
110122102,38.208,-18.372,-61.707
110122120,38.208,-18.372,-61.707
110122200,38.208,-18.372,-61.707
110122210,40.039,-16.541,-69.031
110122220,40.039,-16.541,-69.031
110200000,41.382,-18.616,-72.205
110200010,41.382,-18.616,-72.205
110200021,41.382,-18.616,-72.205
110200101,39.124,-24.780,-73.059
110200111,39.124,-24.780,-73.059
110200121,39.124,-24.780,-73.059
110200201,31.128,-32.715,-72.510
110200212,31.128,-32.715,-72.510
110200222,21.118,-38.940,-71.411
110201002,21.118,-38.940,-71.411
110201012,21.118,-38.940,-71.411
110201022,11.841,-41.870,-71.167
110201110,11.841,-41.870,-71.167
110201120,11.841,-41.870,-72.144
110201200,3.357,-41.565,-72.144
110201210,3.357,-41.565,-72.144
110201220,-4.150,-39.856,-73.181
110202000,-4.150,-39.856,-73.181
110202011,-4.150,-39.856,-73.181
110202021,-11.658,-38.086,-72.876
110202101,-11.658,-38.086,-72.876
110202111,-22.400,-37.964,-72.327
110202122,-22.400,-37.964,-72.327
110202202,-22.400,-37.964,-72.327
110202212,-30.457,-39.917,-71.106
110202222,-30.457,-39.917,-71.106
110210010,-39.124,-44.617,-69.275
110210020,-39.124,-44.617,-69.275
110210101,-39.124,-44.617,-69.275
110210111,-50.842,-51.270,-65.735
110210121,-50.842,-51.270,-65.735
110210201,-50.842,-51.270,-59.082
110210212,-61.157,-58.960,-59.082
110210222,-61.157,-58.960,-59.082
110211002,-67.200,-63.904,-51.392
110211012,-67.200,-63.904,-51.392
110211100,-67.200,-63.904,-51.392
110211110,-72.998,-65.979,-45.227
110211120,-72.998,-65.979,-45.227
110211200,-77.881,-63.904,-40.039
110211211,-77.881,-63.904,-40.039
110211221,-77.881,-63.904,-40.039
110212001,-82.092,-57.800,-32.654
110212012,-82.092,-57.800,-32.654
110212022,-83.923,-49.500,-23.865
110212102,-83.923,-49.500,-23.865
110212120,-83.923,-49.500,-23.865
110212200,-83.984,-45.410,-16.174
110212210,-83.984,-45.410,-16.174
110212220,-82.581,-47.119,-8.423
110220001,-82.581,-47.119,-8.423
110220011,-82.581,-47.119,-8.423
110220021,-81.360,-54.077,1.282
110220102,-81.360,-54.077,1.282
110220112,-81.360,-54.077,10.864
110220122,-77.454,-68.726,10.864
110220202,-77.454,-68.726,10.864
110220212,-77.393,-89.111,19.958
110220222,-77.393,-89.111,19.958
110221010,-77.393,-89.111,19.958
110221020,-84.595,-102.966,31.860
110221100,-84.595,-102.966,31.860
110221110,-91.125,-104.919,41.260
110221121,-91.125,-104.919,41.260
110221201,-91.125,-104.919,41.260
110221211,-96.741,-101.196,46.692
110221221,-96.741,-101.196,46.692
110222001,-96.741,-101.196,46.692
110222012,-103.210,-98.999,51.575
110222022,-103.210,-98.999,51.575
110222102,-109.314,-96.863,52.002
110222112,-109.314,-96.863,52.002
110222122,-109.314,-96.863,52.002
110222210,-118.042,-89.783,49.377
110222220,-118.042,-89.783,49.377
111000000,-118.042,-77.209,45.044
111000010,-128.235,-77.209,45.044
111000020,-128.235,-77.209,45.044
111000100,-143.555,-61.768,39.124
111000111,-143.555,-61.768,39.124
111000121,-143.555,-61.768,39.124
111000201,-169.739,-49.744,32.227
111000211,-169.739,-49.744,32.227
111000221,-198.730,-39.429,25.818
111001002,-198.730,-39.429,25.818
111001012,-198.730,-39.429,25.818
111001022,-227.112,-29.541,18.677
111001102,-227.112,-29.541,18.677
111001112,-227.112,-29.541,18.677
111001122,-253.052,-20.630,7.874
111001210,-253.052,-20.630,7.874
111001220,-275.024,-11.536,-1.465
111002000,-275.024,-11.536,-1.465
111002010,-275.024,-11.536,-1.465
111002021,-288.513,-1.526,-4.517
111002101,-288.513,-1.526,-4.517
111002111,-284.546,10.864,1.587
111002121,-284.546,10.864,1.587
111002202,-284.546,10.864,1.587
111002212,-259.216,19.409,13.428
111002222,-259.216,19.409,13.428
111010002,-259.216,19.409,13.428
111010012,-220.947,20.020,20.630
111010022,-220.947,20.020,20.630
111010102,-179.993,18.677,18.066
111010120,-179.993,18.677,18.066
111010200,-179.993,18.677,18.066
111010210,-146.423,20.630,10.437
111010220,-146.423,20.630,10.437
111011000,-146.423,20.630,10.437
111011010,-126.953,25.085,1.892
111011020,-126.953,25.085,1.892
111011100,-126.953,23.621,-8.667
111011110,-128.235,23.621,-8.667
111011121,-128.235,23.621,-8.667
111011201,-142.517,11.963,-19.897
111011211,-142.517,11.963,-19.897
111011221,-142.517,11.963,-19.897
111012001,-154.297,-8.423,-30.029
111012012,-154.297,-8.423,-30.029
111012022,-161.133,-36.133,-43.091
111012102,-161.133,-36.133,-43.091
111012120,-161.133,-36.133,-43.091
111012200,-163.574,-67.505,-59.631
111012210,-163.574,-67.505,-59.631
111012221,-158.325,-94.116,-74.829
111020001,-158.325,-94.116,-74.829
111020011,-158.325,-94.116,-74.829
111020021,-143.311,-97.290,-72.083
111020102,-143.311,-97.290,-72.083
111020112,-121.033,-72.144,-41.870
111020122,-121.033,-72.144,-41.870
111020210,-121.033,-72.144,-41.870
111020220,-91.919,-42.114,-2.136
111021000,-91.919,-42.114,-2.136
111021011,-91.919,-21.484,25.269
111021021,-61.462,-21.484,25.269
111021101,-61.462,-21.484,25.269
111021111,-37.903,-11.780,32.837
111021121,-37.903,-11.780,32.837
111021202,-37.903,-11.780,32.837
111021212,-26.245,-7.202,32.104
111021222,-26.245,-7.202,32.104
111022002,-24.048,-1.160,28.015
111022012,-24.048,-1.160,28.015
111022100,-24.048,-1.160,28.015
111022110,-30.029,2.869,22.522
111022120,-30.029,2.869,22.522
111022200,-30.029,2.869,22.522
111022210,-40.527,2.563,18.433
111022220,-40.527,2.563,18.433
111100001,-47.241,2.319,16.235
111100011,-47.241,2.319,16.235
111100021,-47.241,2.319,16.235
111100101,-48.096,3.296,14.954
111100111,-48.096,3.296,14.954
111100121,-48.096,3.296,14.954
111100201,-40.222,5.310,15.686
111100211,-40.222,5.310,15.686
111100221,-24.231,9.705,19.104
111101002,-24.231,9.705,19.104
111101012,-24.231,9.705,19.104
111101022,-7.568,16.968,22.644
111101102,-7.568,16.968,22.644
111101112,-7.568,16.968,22.644
111101122,9.888,28.137,19.592
111101202,9.888,28.137,19.592
111101212,9.888,43.762,8.362
111101222,27.161,40.161,8.362
111102002,27.161,40.161,8.362
111102012,40.222,52.002,-4.272
111102022,40.222,52.002,-4.272
111102102,40.222,52.002,-4.272
111102112,51.331,66.956,-15.259
111102122,51.331,66.956,-15.259
111102210,51.331,66.956,-15.259
111102220,59.937,81.909,-23.499
111110000,59.937,81.909,-23.499
111110010,75.562,92.041,-28.320
111110020,63.904,92.041,-28.320
111110100,63.904,92.041,-28.320
111110110,70.740,96.436,-30.701
111110120,70.740,96.436,-30.701
111110200,70.740,96.436,-30.701
111110210,80.994,97.595,-30.640
111110220,80.994,97.595,-30.640
111111000,80.994,97.595,-30.640
111111011,92.102,97.534,-31.738
111111021,92.102,97.534,-31.738
111111101,102.234,98.145,-33.875
111111111,102.234,98.145,-33.875
111111121,102.234,98.145,-33.875
111111201,109.497,99.121,-35.583
111111211,109.497,99.121,-35.583
111111221,109.497,99.121,-35.583
111112001,112.488,101.563,-37.170
111112011,112.488,101.563,-37.170
111112021,112.488,105.042,-36.865
111112101,112.793,105.042,-36.865
111112112,112.793,105.042,-36.865
111112122,114.014,106.995,-35.828
111112202,114.014,106.995,-35.828
111112212,114.014,106.995,-35.828
111112222,115.967,105.164,-36.377
111120002,115.967,105.164,-36.377
111120012,115.967,105.164,-38.635
111120022,118.896,99.121,-38.635
111120102,118.896,99.121,-38.635
111120120,127.075,91.064,-40.649
111120200,127.075,91.064,-40.649
111120210,127.075,91.064,-40.649
111120220,138.367,82.336,-42.175
111121000,138.367,82.336,-42.175
111121010,138.367,82.336,-42.175
111121020,150.452,72.998,-41.748
111121100,150.452,72.998,-41.748
111121110,163.330,64.026,-38.879
111121120,163.330,64.026,-38.879
111121200,163.330,64.026,-38.879
111121211,178.345,57.373,-35.034
111121221,178.345,57.373,-35.034
111122001,178.345,57.373,-35.034
111122011,192.688,52.856,-32.166
111122021,192.688,52.856,-32.166
111122101,208.313,50.354,-30.823
111122111,204.346,50.354,-30.823
111122121,204.346,50.354,-30.823
111122202,209.595,50.964,-31.372
111122212,209.595,50.964,-31.372
111122222,209.595,50.964,-31.372
111200002,208.252,53.833,-32.959
111200012,208.252,53.833,-32.959
111200022,208.252,53.833,-37.598
111200102,200.256,57.007,-37.598
111200112,200.256,57.007,-37.598
111200122,188.293,59.448,-45.227
111200202,188.293,59.448,-45.227
111200212,188.293,59.448,-45.227
111201000,177.795,61.218,-52.612
111201010,177.795,61.218,-52.612
111201020,177.795,61.218,-52.612
111201100,168.213,60.242,-56.091
111201110,168.213,60.242,-56.091
111201120,160.767,57.251,-51.331
111201200,160.767,57.251,-51.331
111201210,160.767,57.251,-51.331
111201220,155.090,49.500,-39.124
111202000,155.090,49.500,-39.124
111202010,155.090,49.500,-39.124
111202021,151.367,37.354,-24.292
111202101,151.367,37.354,-24.292
111202111,151.367,37.354,-11.047
111202121,147.705,25.696,-11.047
111202201,147.705,25.696,-11.047
111202211,144.470,18.921,-2.808
111202221,144.470,18.921,-2.808
111210001,144.470,18.921,-2.808
111210011,143.982,21.240,-0.427
111210021,143.982,21.240,-0.427
111210101,143.982,21.240,-0.427
111210112,141.418,31.494,-1.648
111210122,141.418,31.494,-1.648
111210202,134.583,45.654,-5.981
111210212,134.583,45.654,-5.981
111210222,134.583,45.654,-5.981
111211002,127.014,57.922,-12.695
111211012,127.014,57.922,-12.695
111211022,127.014,57.922,-12.695
111211102,120.117,65.247,-18.921
111211112,120.117,65.247,-18.921
111211200,120.117,66.895,-23.010
111211210,111.938,66.895,-23.010
111211220,111.938,66.895,-23.010
111212000,103.271,63.110,-23.071
111212010,103.271,63.110,-23.071
111212020,103.271,63.110,-23.071
111212100,95.947,57.556,-18.311
111212110,95.947,57.556,-18.311
111212120,95.947,57.556,-18.311
111212200,93.201,53.467,-9.521
111212210,93.201,53.467,-9.521
111212220,94.604,50.537,-0.427
111220001,94.604,50.537,-0.427
111220011,94.604,50.537,-0.427
111220021,96.497,46.082,7.874
111220101,96.497,46.082,7.874
111220111,96.497,46.082,7.874
111220121,98.328,41.138,13.306
111220201,98.328,41.138,13.306
111220211,98.328,41.138,13.306
111220221,97.961,38.025,14.099
111221001,97.961,38.025,14.099
111221011,82.336,37.903,9.399
111221021,92.468,37.903,9.399
111221101,92.468,37.903,9.399
111221111,84.534,40.833,1.770
111221121,84.534,40.833,1.770
111221201,84.534,40.833,1.770
111221211,75.989,45.959,-5.188
111221221,75.989,45.959,-5.188
111222001,75.989,45.959,-5.188
111222011,61.707,51.636,-12.878
111222021,61.707,51.636,-12.878
111222101,46.082,57.190,-21.240
111222111,46.143,57.190,-21.240
111222121,46.143,57.190,-21.240
111222201,31.921,62.073,-27.649
111222212,31.921,62.073,-27.649
111222222,31.921,62.073,-27.649
112000002,20.325,65.552,-30.273
112000012,20.325,65.552,-30.273
112000022,20.325,65.552,-29.480
112000102,10.986,67.749,-29.480
112000112,10.986,67.749,-29.480
112000122,4.028,67.749,-24.414
112000202,4.028,67.749,-24.414
112000212,4.028,67.749,-24.414
112001000,2.014,61.157,-14.343
112001010,2.014,61.157,-14.343
112001020,2.014,61.157,-14.343
112001100,4.700,46.936,-1.892
112001110,4.700,46.936,-1.892
112001120,12.024,28.809,12.329
112001200,12.024,28.809,12.329
112001210,12.024,28.809,12.329
112001220,17.212,8.301,24.841
112002000,17.212,8.301,24.841
112002010,17.212,8.301,24.841
112002020,19.897,-8.911,33.813
112002100,19.897,-8.911,33.813
112002110,19.897,-8.911,33.813
112002120,19.958,-19.958,37.415
112002201,19.958,-19.958,37.415
112002211,16.663,-24.109,34.546
112002221,16.663,-24.109,34.546
112010001,16.663,-24.109,34.546
112010011,10.559,-21.912,27.588
112010021,10.559,-21.912,27.588
112010101,10.559,-21.912,27.588
112010111,3.479,-15.381,18.860
112010121,3.479,-15.381,18.860
112010201,3.479,-7.690,10.315
112010212,-2.258,-7.690,10.315
112010222,-2.258,-7.690,10.315
112011002,-6.958,-2.441,1.648
112011012,-6.958,-2.441,1.648
112011022,-6.958,-2.441,1.648
112011110,-9.827,-0.732,-6.836
112011120,-9.827,-0.732,-6.836
112011200,-11.108,-1.343,-14.038
112011210,-11.108,-1.343,-14.038
112011221,-11.108,-1.343,-14.038
112012001,-11.169,-3.052,-16.785
112012011,-11.169,-3.052,-16.785
112012021,-11.169,-7.202,-15.991
112012102,-7.690,-7.202,-15.991
112012112,-7.690,-7.202,-15.991
112012122,-1.465,-18.311,-13.733
112012202,-1.465,-18.311,-13.733
112012220,-1.465,-18.311,-13.733
112020000,6.165,-36.255,-12.146
112020010,6.165,-36.255,-12.146
112020020,14.038,-57.373,-10.742
112020100,14.038,-57.373,-10.742
112020111,14.038,-57.373,-10.742
112020121,17.822,-76.660,-9.521
112020201,17.822,-76.660,-9.521
112020211,17.822,-92.285,-7.996
112020221,15.503,-90.149,-7.996
112021001,15.503,-90.149,-7.996
112021012,7.202,-98.022,-6.348
112021022,7.202,-98.022,-6.348
112021102,7.202,-98.022,-6.348
112021112,-3.418,-100.891,-5.798
112021200,-3.418,-100.891,-5.798
112021210,-13.123,-99.121,-6.104
112021220,-13.123,-99.121,-6.104
112022000,-13.123,-99.121,-6.104
112022011,-21.484,-93.811,-5.798
112022021,-21.484,-93.811,-5.798
112022101,-21.484,-86.426,-4.333
112022111,-27.283,-86.426,-4.333
112022122,-27.283,-86.426,-4.333
112022202,-31.372,-79.895,-3.174
112022212,-31.372,-79.895,-3.174
112022222,-31.372,-79.895,-3.174
112100010,-33.997,-76.721,-2.380
112100020,-33.997,-76.721,-2.380
112100100,-37.292,-77.087,-1.343
112100111,-37.292,-77.087,-1.343
112100121,-37.292,-77.087,-1.343
112100201,-41.382,-79.224,-0.061
112100211,-41.382,-79.224,-0.061
112100222,-46.936,-83.008,0.183
112101002,-46.936,-83.008,0.183
112101012,-46.936,-83.008,0.183
112101022,-54.443,-88.196,-1.709
112101102,-54.443,-88.196,-1.709
112101120,-54.443,-91.736,-5.005
112101200,-64.941,-91.736,-5.005
112101210,-64.941,-91.736,-5.005
112101221,-77.820,-90.027,-9.033
112102001,-77.820,-90.027,-9.033
112102011,-77.820,-90.027,-9.033
112102021,-92.163,-84.412,-13.672
112102102,-92.163,-84.412,-13.672
112102112,-106.567,-78.430,-20.142
112102122,-106.567,-78.430,-20.142
112102202,-106.567,-78.430,-20.142
112102220,-120.972,-73.059,-26.978
112110000,-120.972,-73.059,-26.978
112110010,-134.399,-65.796,-32.959
112110021,-134.399,-65.796,-32.959
112110101,-134.399,-65.796,-32.959
112110111,-146.851,-54.443,-36.560
112110121,-146.851,-54.443,-36.560
112110202,-157.410,-42.114,-35.706
112110212,-157.410,-42.114,-35.706
112110222,-157.410,-42.114,-35.706
112111002,-163.940,-34.363,-31.067
112111020,-163.940,-34.363,-31.067
112111100,-163.940,-34.363,-23.071
112111110,-165.771,-35.950,-23.071
112111121,-165.771,-35.950,-23.071
112111201,-162.415,-46.143,-11.353
112111211,-162.415,-46.143,-11.353
112111221,-162.415,-46.143,-11.353
112112002,-156.555,-62.256,3.723
112112012,-156.555,-62.256,3.723
112112022,-152.283,-83.130,23.010
112112102,-152.283,-83.130,23.010
112112112,-152.283,-83.130,23.010
112112200,-144.958,-103.638,43.030
112112210,-144.958,-103.638,43.030
112112220,-144.958,-116.943,57.251
112120000,-135.925,-116.943,57.251
112120010,-135.925,-116.943,57.251
112120021,-128.113,-117.432,61.401
112120101,-128.113,-117.432,61.401
112120111,-128.113,-117.432,61.401
112120121,-120.972,-104.187,58.960
112120201,-120.972,-104.187,58.960
112120212,-116.760,-86.914,55.603
112120222,-116.760,-86.914,55.603
112121002,-116.760,-86.914,55.603
112121012,-115.601,-72.632,55.420
112121022,-115.601,-72.632,55.420
112121110,-115.601,-72.632,55.420
112121120,-116.211,-63.782,57.861
112121200,-116.211,-63.782,57.861
112121210,-120.056,-60.974,59.082
112121220,-120.056,-60.974,59.082
112122001,-120.056,-60.974,59.082
112122011,-129.150,-58.594,57.556
112122021,-129.150,-58.594,57.556
112122101,-144.775,-48.828,63.354
112122111,-141.418,-48.828,63.354
112122122,-141.418,-48.828,63.354
112122202,-148.071,-32.410,65.002
112122212,-148.071,-32.410,65.002
112122222,-148.071,-32.410,65.002
112200002,-155.823,-11.780,50.903
112200020,-155.823,-11.780,50.903
112200100,-185.913,2.014,39.795
112200110,-185.913,2.014,39.795
112200120,-185.913,2.014,39.795
112200200,-216.003,19.897,39.246
112200210,-216.003,19.897,39.246
112200220,-216.003,19.897,39.246
112201000,-233.337,41.077,40.283
112201010,-233.337,41.077,40.283
112201021,-235.596,57.556,38.086
112201101,-235.596,57.556,38.086
112201111,-235.596,57.556,38.086
112201121,-217.957,63.477,39.795
112201201,-217.957,63.477,39.795
112201211,-217.957,63.477,39.795
112201221,-180.237,54.626,44.495
112202001,-180.237,54.626,44.495
112202011,-180.237,32.043,45.166
112202021,-136.719,32.043,45.166
112202102,-136.719,32.043,45.166
112202112,-100.586,5.493,41.748
112202122,-100.586,5.493,41.748
112202202,-100.586,5.493,41.748
112202212,-75.317,-14.404,37.537
112202222,-75.317,-14.404,37.537
112210002,-75.317,-30.029,32.776
112210020,-66.711,-27.100,32.776
112210100,-66.711,-27.100,32.776
112210110,-71.777,-33.386,25.818
112210120,-71.777,-33.386,25.818
112210200,-71.777,-33.386,25.818
112210211,-81.238,-33.325,13.306
112210221,-81.238,-33.325,13.306
112211001,-88.989,-26.733,-2.319
112211011,-88.989,-26.733,-2.319
112211021,-88.989,-26.733,-2.319
112211102,-91.003,-5.798,-8.057
112211112,-91.003,-5.798,-8.057
112211122,-91.003,-5.798,-8.057
112211202,-84.839,23.987,-2.625
112211220,-84.839,23.987,-2.625
112212000,-71.472,50.598,7.141
112212010,-71.472,50.598,7.141
112212020,-71.472,50.598,7.141
112212100,-57.312,62.744,7.629
112212110,-57.312,62.744,7.629
112212121,-57.312,62.744,1.892
112212201,-43.762,62.744,1.892
112212211,-43.762,62.744,1.892
112212221,-30.090,56.641,-1.648
112220001,-30.090,56.641,-1.648
112220011,-30.090,56.641,-1.648
112220021,-9.644,46.753,0.916
112220102,-9.644,46.753,0.916
112220112,-9.644,28.442,3.479
112220122,-2.869,28.442,3.479
112220202,-2.869,28.442,3.479
112220212,5.493,15.259,1.221
112220222,5.493,15.259,1.221
112221002,5.493,15.259,1.221
112221012,20.569,15.198,-5.981
112221022,20.569,15.198,-5.981
112221102,20.569,15.198,-5.981
112221112,31.616,23.254,-18.921
112221200,31.616,23.254,-18.921
112221210,33.630,34.790,-30.884
112221220,33.630,34.790,-30.884
112222000,33.630,34.790,-30.884
112222010,28.992,48.584,-37.231
112222020,28.992,48.584,-37.231
112222100,28.992,48.584,-37.231
112222110,24.841,60.669,-39.490
112222120,24.841,60.669,-39.490
112222200,24.841,68.604,-41.260
112222210,27.344,68.604,-41.260
112222220,27.344,68.604,-41.260
120000001,34.912,70.801,-43.030
120000011,34.912,70.801,-43.030
120000021,34.912,70.801,-43.030
120000101,47.607,64.087,-43.640
120000111,47.607,64.087,-43.640
120000121,47.607,64.087,-43.640
120000201,63.782,50.415,-42.053
120000211,63.782,50.415,-42.053
120000222,79.895,36.133,-39.124
120001002,79.895,36.133,-39.124
120001012,79.895,36.133,-39.124
120001022,93.018,27.039,-34.485
120001102,93.018,27.039,-34.485
120001112,93.018,27.039,-34.485
120001122,102.478,26.062,-30.029
120001202,102.478,26.062,-30.029
120001220,108.154,30.823,-27.405
120002000,108.154,30.823,-27.405
120002010,108.154,30.823,-27.405
120002020,110.535,36.011,-27.649
120002100,110.535,36.011,-27.649
120002110,110.535,36.011,-27.649
120002120,110.474,40.710,-30.884
120002200,110.474,40.710,-30.884
120002210,110.474,46.692,-38.330
120002220,109.741,46.692,-38.330
120010000,109.741,46.692,-38.330
120010011,106.873,54.871,-47.302
120010021,106.873,54.871,-47.302
120010101,106.873,54.871,-47.302
120010111,105.469,67.017,-54.871
120010121,105.469,67.017,-54.871
120010201,105.469,67.017,-60.486
120010211,107.056,80.200,-60.486
120010221,107.056,80.200,-60.486
120011001,109.314,87.219,-62.073
120011011,109.314,87.219,-62.073
120011022,109.314,87.219,-62.073
120011102,111.877,85.205,-60.486
120011112,111.877,85.205,-60.486
120011122,111.877,85.205,-60.486
120011202,117.981,77.698,-57.251
120011212,117.981,77.698,-57.251
120011222,129.517,67.566,-53.162
120012002,129.517,67.566,-53.162
120012012,129.517,67.566,-53.162
120012022,143.250,57.434,-48.950
120012102,143.250,57.434,-48.950
120012120,143.250,57.434,-48.950
120012200,153.076,49.255,-45.654
120012210,153.076,49.255,-45.654
120012220,153.076,33.630,-42.847
120020000,157.471,45.715,-42.847
120020010,157.471,45.715,-42.847
120020020,157.349,46.692,-41.321
120020100,157.349,46.692,-41.321
120020110,157.349,46.692,-41.321
120020120,152.649,48.157,-41.077
120020200,152.649,48.157,-41.077
120020211,152.649,48.157,-41.077
120020221,144.104,47.241,-40.955
120021001,144.104,47.241,-40.955
120021011,132.629,44.922,-39.856
120021021,132.629,44.922,-39.856
120021101,132.629,44.922,-39.856
120021111,121.338,45.105,-40.344
120021121,121.338,45.105,-40.344
120021201,121.338,45.105,-40.344
120021212,113.098,47.668,-42.603
120021222,113.098,47.668,-42.603
120022002,113.098,49.316,-43.518
120022012,109.924,49.316,-43.518
120022022,109.924,49.316,-43.518
120022102,109.802,47.729,-41.870
120022112,109.802,47.729,-41.870
120022122,109.802,47.729,-41.870
120022202,112.366,42.664,-37.231
120022212,112.366,42.664,-37.231
120022222,112.366,42.664,-28.687
120100010,117.920,34.241,-28.687
120100020,117.920,34.241,-28.687
120100100,128.052,24.841,-17.700
120100110,128.052,24.841,-17.700
120100120,128.052,24.841,-17.700
120100200,137.756,16.296,-6.775
120100210,137.756,16.296,-6.775
120100220,137.756,16.296,-6.775
120101000,143.555,12.695,1.099
120101010,143.555,12.695,1.099
120101020,143.555,15.686,6.775
120101100,147.278,15.686,6.775
120101110,147.278,15.686,6.775
120101120,146.667,19.409,8.423
120101200,146.667,19.409,8.423
120101210,146.667,19.409,8.423
120101220,140.015,20.264,6.836
120102000,140.015,20.264,6.836
120102010,140.015,20.264,6.836
120102020,130.798,19.409,4.211
120102100,130.798,19.409,4.211
120102110,130.798,19.409,4.211
120102120,121.948,19.653,2.930
120102200,121.948,19.653,2.930
120102210,121.948,20.264,3.723
120102220,110.229,20.264,3.723
120110000,110.229,20.264,3.723
120110010,97.961,22.949,5.554
120110020,97.961,22.949,5.554
120110100,97.961,22.949,5.554
120110110,87.891,29.419,6.287
120110120,87.891,29.419,6.287
120110200,87.891,29.419,6.287
120110210,79.163,38.513,4.395
120110220,79.163,38.513,4.395
120111000,79.163,38.513,4.395
120111010,72.571,49.133,1.709
120111020,72.571,49.133,1.709
120111100,67.932,60.913,0.000
120111110,67.932,60.913,0.000
120111120,67.932,60.913,0.000
120111200,64.514,71.594,-1.648
120111210,64.514,71.594,-1.648
120111220,64.514,71.594,-1.648
120112000,62.622,77.942,-3.174
120112011,62.622,77.942,-3.174
120112021,62.622,77.942,-3.174
120112101,62.256,79.529,-6.104
120112111,62.256,79.529,-6.104
120112121,58.289,75.745,-9.155
120112201,58.289,75.745,-9.155
120112211,58.289,75.745,-9.155
120112221,51.575,67.688,-9.949
120120001,51.575,67.688,-9.949
120120011,51.575,67.688,-9.949
120120022,45.898,58.716,-7.080
120120102,45.898,58.716,-7.080
120120112,40.344,49.622,-4.150
120120122,40.344,49.622,-4.150
120120202,40.344,49.622,-4.150
120120212,32.349,40.588,-3.113
120120222,32.349,40.588,-3.113
120121002,32.349,40.588,-3.113
120121012,25.330,33.264,-3.235
120121100,25.330,33.264,-3.235
120121110,25.330,33.264,-5.798
120121120,20.386,28.442,-5.798
120121200,20.386,28.442,-5.798
120121210,15.991,27.100,-10.315
120121220,15.991,27.100,-10.315
120122000,15.991,27.100,-10.315
120122010,13.794,30.518,-13.306
120122020,13.794,30.518,-13.306
120122100,13.794,30.518,-13.306
120122111,13.489,36.987,-11.353
120122121,13.489,36.987,-11.353
120122201,12.329,41.809,-5.493
120122211,12.329,41.809,-5.493
120122221,12.329,41.809,-5.493
120200001,10.864,40.344,1.343
120200011,10.864,40.344,1.343
120200021,10.864,40.344,1.343
120200101,11.414,30.884,9.094
120200111,11.414,30.884,9.094
120200121,11.414,30.884,15.381
120200201,12.817,15.381,15.381
120200211,12.817,15.381,15.381
120200221,12.146,-0.671,19.043
120201001,12.146,-0.671,19.043
120201011,12.146,-0.671,19.043
120201021,10.742,-12.146,20.813
120201102,10.742,-12.146,20.813
120201112,10.742,-12.146,20.813
120201122,7.874,-18.494,20.996
120201202,7.874,-18.494,20.996
120201212,7.874,-20.508,18.677
120201222,3.845,-20.508,18.677
120202002,3.845,-20.508,18.677
120202012,-0.488,-18.677,15.320
120202022,-0.488,-18.677,15.320
120202110,-0.488,-18.677,15.320
120202120,-3.296,-14.282,12.573
120202200,-3.296,-14.282,12.573
120202210,-3.662,-9.338,11.414
120202220,-3.662,-9.338,11.414
120210001,-3.662,-9.338,11.414
120210011,-1.099,-7.080,11.414
120210021,-1.099,-7.080,11.414
120210101,-1.099,-7.080,11.414
120210111,3.174,-9.216,10.864
120210121,3.174,-9.216,10.864
120210201,6.287,-14.221,9.644
120210212,6.287,-14.221,9.644
120210222,6.287,-14.221,9.644
120211002,8.423,-18.982,7.935
120211012,8.423,-18.982,7.935
120211022,8.423,-18.982,7.935
120211102,8.118,-22.095,5.371
120211112,8.118,-22.095,5.371
120211122,8.118,-22.095,1.587
120211202,5.798,-24.414,1.587
120211212,5.798,-24.414,1.587
120211222,3.235,-27.588,-1.465
120212010,3.235,-27.588,-1.465
120212020,3.235,-27.588,-1.465
120212100,0.061,-31.860,-3.784
120212110,0.061,-31.860,-3.784
120212121,-15.564,-35.828,-6.653
120212201,-2.441,-35.828,-6.653
120212211,-2.441,-35.828,-6.653
120212221,-3.052,-39.490,-9.888
120220002,-3.052,-39.490,-9.888
120220012,-3.052,-39.490,-9.888
120220022,-1.648,-43.640,-12.268
120220102,-1.648,-43.640,-12.268
120220120,0.000,-49.927,-13.245
120220200,0.000,-49.927,-13.245
120220210,0.000,-49.927,-13.245
120220220,0.488,-58.289,-11.963
120221000,0.488,-58.289,-11.963
120221011,0.122,-67.200,-8.240
120221021,0.122,-67.200,-8.240
120221101,0.122,-67.200,-8.240
120221111,-0.366,-73.975,-3.479
120221122,-0.366,-73.975,-3.479
120221202,-0.366,-73.975,-2.014
120221212,-1.160,-77.881,-2.014
120221222,-1.160,-77.881,-2.014
120222010,-4.517,-81.726,-2.319
120222020,-4.517,-81.726,-2.319
120222100,-4.517,-81.726,-2.319
120222111,-9.827,-86.060,-3.235
120222121,-9.827,-86.060,-3.235
120222201,-17.944,-89.722,-3.479
120222211,-17.944,-89.722,-3.479
120222222,-17.944,-89.722,-3.479
121000002,-29.846,-94.360,-4.333
121000012,-29.846,-94.360,-4.333
121000022,-41.443,-100.220,-7.080
121000110,-41.443,-100.220,-7.080
121000120,-41.443,-100.220,-7.080
121000200,-52.307,-105.591,-10.620
121000211,-52.307,-105.591,-10.620
121000221,-52.307,-106.262,-15.869
121001001,-60.852,-106.262,-15.869
121001012,-60.852,-106.262,-15.869
121001022,-67.322,-100.159,-24.475
121001102,-67.322,-100.159,-24.475
121001112,-67.322,-100.159,-34.668
121001200,-74.646,-91.858,-34.668
121001210,-74.646,-91.858,-34.668
121001220,-83.374,-83.435,-43.518
121002000,-83.374,-83.435,-43.518
121002011,-83.374,-83.435,-43.518
121002021,-94.299,-78.064,-49.377
121002101,-94.299,-78.064,-49.377
121002111,-106.079,-76.843,-52.429
121002122,-106.079,-76.843,-52.429
121002202,-106.079,-76.843,-52.429
121002212,-117.615,-78.125,-51.270
121002222,-117.615,-78.125,-51.270
121010010,-126.831,-78.064,-46.570
121010020,-126.831,-78.064,-46.570
121010100,-126.831,-78.064,-46.570
121010110,-136.414,-77.637,-40.222
121010121,-136.414,-77.637,-40.222
121010201,-136.414,-77.637,-34.119
121010211,-145.569,-78.064,-34.119
121010222,-145.569,-78.064,-34.119
121011002,-151.672,-78.247,-27.832
121011012,-151.672,-78.247,-27.832
121011022,-151.672,-78.247,-27.832
121011110,-154.968,-75.928,-21.057
121011120,-154.968,-75.928,-21.057
121011200,-155.396,-70.313,-15.442
121011211,-155.396,-70.313,-15.442
121011221,-155.396,-70.313,-15.442
121012001,-153.503,-62.012,-9.460
121012012,-153.503,-62.012,-9.460
121012022,-150.818,-54.871,0.732
121012102,-150.818,-54.871,0.732
121012112,-150.818,-54.871,0.732
121012200,-144.409,-54.626,21.301
121012210,-144.409,-54.626,21.301
121012220,-144.409,-62.683,43.762
121020000,-143.066,-62.683,43.762
121020010,-143.066,-62.683,43.762
121020020,-140.747,-72.632,60.181
121020100,-140.747,-72.632,60.181
121020111,-140.747,-72.632,60.181
121020121,-138.428,-81.909,65.857
121020201,-138.428,-81.909,65.857
121020211,-140.015,-87.158,62.500
121020221,-140.015,-87.158,62.500
121021002,-140.015,-87.158,62.500
121021012,-137.085,-78.979,53.955
121021022,-137.085,-78.979,53.955
121021102,-137.085,-78.979,53.955
121021112,-138.123,-57.556,50.659
121021200,-138.123,-57.556,50.659
121021210,-148.926,-27.344,49.316
121021220,-148.926,-27.344,49.316
121022000,-148.926,-27.344,49.316
121022011,-158.691,9.033,45.532
121022021,-158.691,9.033,45.532
121022101,-158.691,39.612,39.185
121022111,-171.753,39.612,39.185
121022121,-171.753,39.612,39.185
121022201,-182.312,64.453,32.959
121022211,-182.312,64.453,32.959
121022221,-182.312,64.453,32.959
121100001,-185.608,87.158,31.128
121100012,-185.608,87.158,31.128
121100022,-185.608,87.158,35.278
121100102,-185.669,98.389,35.278
121100112,-185.669,98.389,35.278
121100122,-182.068,89.661,43.701
121100202,-182.068,89.661,43.701
121100212,-182.068,89.661,43.701
121100222,-171.265,62.805,53.345
121101010,-171.265,62.805,53.345
121101020,-171.265,62.805,53.345
121101100,-152.710,27.954,59.326
121101110,-152.710,27.954,59.326
121101120,-130.981,-5.493,57.068
121101200,-130.981,-5.493,57.068
121101210,-130.981,-5.493,57.068
121101221,-116.455,-33.447,48.767
121102001,-116.455,-33.447,48.767
121102011,-116.455,-33.447,33.142
121102021,-113.586,-52.795,36.377
121102101,-113.586,-52.795,36.377
121102111,-117.371,-60.730,26.184
121102121,-117.371,-60.730,26.184
121102202,-117.371,-60.730,26.184
121102212,-118.835,-61.218,21.606
121102222,-118.835,-61.218,21.606
121110002,-118.835,-61.218,21.301
121110012,-111.450,-60.486,21.301
121110100,-111.450,-60.486,21.301
121110110,-97.351,-61.890,23.987
121110120,-97.351,-61.890,23.987
121110200,-97.351,-61.890,23.987
121110210,-79.102,-66.650,30.518
121110220,-79.102,-66.650,30.518
121111000,-79.102,-69.763,36.743
121111011,-61.340,-69.763,36.743
121111021,-61.340,-69.763,36.743
121111101,-50.049,-62.744,36.743
121111111,-50.049,-62.744,36.743
121111122,-50.049,-62.744,36.743
121111202,-45.227,-46.326,29.968
121111212,-45.227,-46.326,29.968
121111222,-45.959,-26.306,19.714
121112010,-45.959,-26.306,19.714
121112020,-45.959,-26.306,19.714
121112100,-49.011,-8.850,7.202
121112110,-49.011,-8.850,7.202
121112120,-49.011,-8.850,-3.784
121112200,-51.819,-0.244,-3.784
121112211,-51.819,-0.244,-3.784
121112221,-51.941,-0.793,-6.531
121120001,-51.941,-0.793,-6.531
121120011,-51.941,-0.793,-6.531
121120022,-44.312,-11.902,-3.601
121120102,-44.312,-11.902,-3.601
121120112,-29.846,-29.663,0.122
121120122,-29.846,-29.663,0.122
121120202,-29.846,-29.663,0.122
121120220,-11.230,-42.969,1.770
121121000,-11.230,-42.969,1.770
121121010,-11.230,-42.969,0.122
121121020,9.521,-43.823,0.122
121121100,9.521,-43.823,0.122
121121110,28.259,-31.006,-2.808
121121121,28.259,-31.006,-2.808
121121201,28.259,-31.006,-2.808
121121211,38.208,-10.315,-6.958
121121221,38.208,-10.315,-6.958
121122001,38.208,12.329,-13.245
121122012,41.382,12.329,-13.245
121122022,41.382,12.329,-13.245
121122102,45.776,35.583,-22.827
121122112,45.776,35.583,-22.827
121122122,45.776,35.583,-22.827
121122202,49.622,52.856,-33.569
121122212,49.622,52.856,-33.569
121122222,49.622,52.856,-40.649
121200002,53.284,61.584,-40.649
121200012,53.284,61.584,-40.649
121200100,59.509,65.979,-43.396
121200110,59.509,65.979,-43.396
121200120,59.509,65.979,-43.396
121200200,71.777,69.763,-43.335
121200210,71.777,69.763,-43.335
121200220,71.777,69.763,-43.335
121201000,87.341,74.097,-41.016
121201010,87.341,74.097,-41.016
121201020,102.417,78.247,-38.086
121201100,102.417,78.247,-38.086
121201110,102.417,78.247,-38.086
