timestamp,gyrX,gyrY,gyrZ
1110121,1.038,-2.014,4.089
1110201,1.038,-2.014,4.089
1110211,0.793,-2.197,4.028
1110221,0.793,-2.197,4.028
1111001,0.793,-2.197,4.028
1111011,-0.549,-1.282,3.540
1111021,-0.549,-1.282,3.540
1111101,-0.549,-1.282,3.540
1111111,-1.831,0.122,3.174
1111121,-1.831,0.122,3.174
1111201,-2.808,1.160,3.052
1111211,-2.808,1.160,3.052
1111221,-2.808,1.160,3.052
1112001,-3.540,1.587,3.235
1112012,-3.540,1.587,3.235
1112022,-3.540,1.587,3.235
1112102,-3.784,1.404,3.601
1112112,-3.784,1.404,3.601
1112122,-3.784,1.404,3.601
1112202,-3.479,0.793,3.723
1112212,-3.479,0.793,3.723
1112222,-2.747,0.305,3.479
1120002,-2.747,0.305,3.479
1120012,-2.747,0.305,3.479
1120022,-1.953,0.854,3.418
1120102,-1.953,0.854,3.418
1120112,-1.953,0.854,3.418
1120122,-1.038,1.770,3.113
1120202,-1.038,1.770,3.113
1120212,-1.038,1.770,3.113
1120222,-0.183,2.136,2.747
1121002,-0.183,2.136,2.747
1121012,0.854,1.953,2.258
1121022,0.854,1.953,2.258
1121102,0.854,1.953,2.258
1121112,1.648,1.526,1.831
1121122,1.648,1.526,1.831
1121202,1.648,1.526,1.831
1121212,2.197,1.160,1.770
1121222,2.197,1.160,1.770
1122002,2.197,1.160,1.770
1122012,2.686,1.465,1.648
1122022,2.686,1.465,1.648
1122102,2.686,1.465,1.648
1122112,2.258,1.648,1.648
1122122,2.258,1.648,1.648
1122202,2.014,1.587,1.648
1122212,2.014,1.587,1.648
1122222,2.014,1.587,1.648
1200002,1.953,1.404,1.709
1200012,1.953,1.404,1.709
1200022,1.953,1.404,1.709
1200102,2.075,1.343,1.831
1200112,2.075,1.343,1.831
1200122,2.075,1.343,1.831
1200202,2.014,1.709,2.014
1200212,2.014,1.709,2.014
1200222,2.014,1.709,2.502
1201002,1.465,2.380,2.502
1201012,1.465,2.380,2.502
1201022,1.221,3.113,2.991
1201102,1.221,3.113,2.991
1201112,1.221,3.113,2.991
1201122,0.549,3.662,3.357
1201202,0.549,3.662,3.357
1201212,0.549,3.662,3.357
1201222,0.305,3.845,3.418
1202002,0.305,3.845,3.418
1202012,0.305,3.845,3.418
1202022,0.000,3.601,3.479
1202102,0.000,3.601,3.479
1202112,0.000,3.601,3.662
1202122,-0.671,3.540,3.662
1202202,-0.671,3.540,3.662
1202212,-1.343,3.174,3.662
1210000,-1.343,3.174,3.662
1210010,-1.343,3.174,3.662
1210020,-1.465,3.113,2.930
1210100,-1.465,3.113,2.930
1210110,-1.465,3.113,2.930
1210120,-1.587,3.418,2.625
1210200,-1.587,3.418,2.625
1210210,-1.587,3.174,2.991
1210220,-1.404,3.174,2.991
1211000,-1.404,3.174,2.991
1211010,-1.465,2.563,3.479
1211020,-1.465,2.563,3.479
1211100,-1.465,2.563,3.479
1211110,-1.099,1.892,3.113
1211120,-1.099,1.892,3.113
1211201,-1.099,1.892,3.113
1211211,-0.549,1.526,2.563
1211221,-0.549,1.526,2.563
1212001,0.122,1.892,2.319
1212011,0.122,1.892,2.319
1212021,0.122,1.892,2.319
1212101,0.427,2.747,2.014
1212110,0.427,2.747,2.014
1212120,0.427,2.747,2.014
1212200,0.488,3.662,1.892
1212210,0.488,3.662,1.892
1212220,0.488,3.662,1.892
1220000,0.183,4.395,1.404
1220010,0.183,4.395,1.404
1220020,0.183,4.395,1.404
1220100,-0.305,4.822,1.160
1220110,-0.305,4.822,1.160
1220120,-0.305,4.883,1.282
1220200,-1.099,4.883,1.282
1220211,-1.099,4.883,1.282
1220221,-1.404,4.395,1.526
1221001,-1.404,4.395,1.526
1221011,-1.404,4.395,1.526
1221021,-1.221,3.479,2.075
1221101,-1.221,3.479,2.075
1221111,-1.221,3.479,2.075
1221121,-1.099,2.747,2.441
1221201,-1.099,2.747,2.441
1221211,-0.671,2.686,2.380
1221221,-0.671,2.686,2.380
1222001,-0.671,2.686,2.380
1222011,-0.427,2.808,1.770
1222021,-0.427,2.808,1.770
1222101,-0.427,2.808,1.770
1222111,-0.671,2.991,1.282
1222121,-0.671,2.991,1.282
1222202,-0.671,2.991,1.282
1222212,-0.854,2.869,0.977
1222222,-0.854,2.869,0.977
2000002,-0.366,2.380,0.916
2000012,-0.366,2.380,0.916
2000022,-0.366,2.380,0.916
2000102,0.427,1.709,0.732
2000112,0.427,1.709,0.732
2000122,0.427,1.709,0.732
2000202,1.282,1.160,1.038
2000212,1.282,1.160,1.038
2000222,1.282,1.160,1.038
2001002,1.892,0.549,1.709
2001012,1.892,0.549,1.709
2001022,1.892,0.549,1.892
2001102,2.197,0.183,1.892
2001112,2.197,0.183,1.892
2001122,1.892,0.244,1.831
2001201,1.892,0.244,1.831
2001211,1.892,0.244,1.831
2001221,1.465,0.732,1.587
2002001,1.465,0.732,1.587
2002011,1.465,0.732,1.587
2002021,0.488,1.465,1.465
2002101,0.488,1.465,1.465
2002111,0.488,1.465,1.465
2002121,-0.366,1.648,1.160
2002201,-0.366,1.648,1.160
2002211,-0.366,1.648,1.160
2002221,-0.671,1.770,1.160
2010002,-0.671,1.770,1.160
2010012,-0.305,1.587,1.404
2010022,-0.305,1.587,1.404
2010102,-0.305,1.587,1.404
2010112,0.000,1.099,1.709
2010122,0.000,1.099,1.709
2010202,0.000,1.099,1.709
2010212,-0.061,0.671,1.648
2010221,-0.061,0.671,1.648
2011002,-0.061,0.671,1.648
2011012,0.366,0.732,1.465
2011021,0.366,0.732,1.465
2011101,0.366,0.732,0.977
2011111,0.732,0.671,0.977
2011121,0.732,0.671,0.977
2011201,1.160,0.549,0.671
2011211,1.160,0.549,0.671
2011221,1.160,0.549,0.671
2012001,1.404,0.122,0.854
2012011,1.404,0.122,0.854
2012021,1.404,0.122,0.854
2012101,1.587,-0.916,1.587
2012111,1.587,-0.916,1.587
2012121,1.587,-0.916,1.587
2012201,1.709,-1.526,2.014
2012211,1.709,-1.526,2.014
2012222,1.709,-1.709,2.563
2020002,1.709,-1.709,2.563
2020012,1.709,-1.709,2.563
2020022,1.648,-1.343,2.991
2020102,1.648,-1.343,2.991
2020112,1.648,-1.343,2.991
2020122,1.343,-0.366,3.418
2020202,1.343,-0.366,3.418
2020212,1.343,-0.366,3.418
2020222,0.732,0.671,3.906
2021002,0.732,0.671,3.906
2021012,0.732,1.526,4.211
2021022,0.305,1.526,4.211
2021102,0.305,1.526,4.211
2021112,0.244,2.136,4.028
2021122,0.244,2.136,4.028
2021202,0.244,2.136,4.028
2021212,0.671,2.686,3.540
2021222,0.671,2.686,3.540
2022002,0.671,2.686,3.540
2022012,1.282,2.930,3.418
2022022,1.282,2.930,3.418
2022102,1.282,2.930,3.418
2022112,1.709,3.235,3.784
2022122,1.709,3.235,3.784
2022202,1.709,3.296,3.906
2022212,1.831,3.296,3.906
2022222,1.831,3.296,3.906
2100002,2.014,2.930,3.662
2100012,2.014,2.930,3.662
2100022,2.014,2.930,3.662
2100102,2.380,2.991,3.174
2100112,2.380,2.991,3.174
2100122,2.380,2.991,3.174
2100202,3.052,4.089,3.235
2100212,3.052,4.089,3.235
2100222,3.052,4.089,3.235
2101002,4.089,5.249,3.296
2101012,4.089,5.249,3.296
2101022,4.089,5.249,3.174
2101102,4.517,5.798,3.174
2101112,4.517,5.798,3.174
2101122,4.456,5.920,2.930
2101202,4.456,5.920,2.930
2101212,4.456,5.920,2.930
2101222,4.333,5.859,2.625
2102002,4.333,5.859,2.625
2102012,4.333,5.859,2.625
2102021,4.395,5.615,2.502
2102101,4.395,5.615,2.502
2102111,4.395,5.615,2.502
2102121,4.395,5.127,2.991
2102201,4.395,5.127,2.991
2102211,4.395,5.127,2.991
2102221,4.150,4.150,3.235
2110001,4.150,4.150,3.235
2110011,3.906,2.808,3.418
2110021,3.906,2.808,3.418
2110101,3.906,2.808,3.418
2110111,4.089,1.648,3.418
2110121,4.089,1.648,3.418
2110201,4.089,1.648,3.418
2110211,4.272,1.221,3.723
2110221,4.272,1.221,3.723
2111001,4.272,1.221,3.723
2111011,4.333,1.038,3.967
2111021,4.333,1.038,3.967
2111101,4.333,1.038,4.211
2111111,4.089,1.343,4.211
2111121,4.089,1.343,4.211
2111201,3.845,1.892,4.395
2111211,3.845,1.892,4.395
2111221,3.845,1.892,4.395
2112001,3.113,2.930,4.395
2112011,3.113,2.930,4.395
2112021,3.113,2.930,4.395
2112101,2.686,4.211,4.517
2112111,2.686,4.211,4.517
2112121,2.686,4.211,4.517
2112201,2.197,5.188,4.333
2112211,2.197,5.188,4.333
2112221,2.197,5.188,4.333
2120001,1.831,6.226,3.540
2120011,1.831,6.226,3.540
2120021,1.221,7.996,2.441
2120101,1.221,7.996,2.441
2120111,1.221,7.996,2.441
2120121,1.038,10.010,1.526
2120201,1.038,10.010,1.526
2120211,1.038,10.010,1.526
2120221,0.793,11.230,1.404
2121001,0.793,11.230,1.404
2121011,0.793,11.230,1.404
2121021,0.854,11.047,1.770
2121101,0.854,11.047,1.770
2121111,0.854,11.047,1.770
2121121,1.343,10.071,2.258
2121201,1.343,10.071,2.258
2121211,1.343,8.728,2.747
2121221,2.258,8.728,2.747
2122001,2.258,8.728,2.747
2122011,2.808,6.958,3.052
2122021,2.808,6.958,3.052
2122101,2.808,6.958,3.052
2122111,2.747,5.615,3.174
2122121,2.747,5.615,3.174
2122201,2.747,5.615,3.174
2122211,2.014,5.066,3.174
2122221,2.014,5.066,3.174
2200001,2.014,5.066,3.174
2200011,1.221,5.188,2.747
2200021,1.221,5.188,2.747
2200101,1.221,5.188,2.258
2200110,0.671,5.432,2.258
2200120,0.671,5.432,2.258
2200200,0.183,5.615,1.831
2200210,0.183,5.615,1.831
2200220,0.183,5.615,1.831
2201000,-0.122,5.737,1.953
2201010,-0.122,5.737,1.953
2201020,-0.122,5.737,1.953
2201101,0.183,5.371,2.197
2201110,0.183,5.371,2.197
2201120,0.183,5.371,2.197
2201200,0.916,4.761,2.319
2201210,0.916,4.761,2.319
2201220,0.916,4.761,2.258
2202000,1.770,4.028,2.258
2202010,1.770,4.028,2.258
2202020,2.563,3.296,2.319
2202100,2.563,3.296,2.319
2202110,2.563,3.296,2.319
2202120,2.502,2.930,2.319
2202200,2.502,2.930,2.319
2202210,2.502,2.930,2.319
2202220,2.136,2.686,2.075
2210000,2.136,2.686,2.075
2210010,2.136,2.686,2.075
2210020,1.465,2.380,1.892
2210100,1.465,2.380,1.892
2210110,1.465,2.380,1.465
2210120,1.526,2.563,1.465
2210200,1.526,2.563,1.465
2210210,2.197,3.357,0.916
2210220,2.197,3.357,0.916
2211000,2.197,3.357,0.916
2211010,3.296,4.395,0.305
2211020,3.296,4.395,0.305
2211100,3.296,4.395,0.305
2211110,3.113,5.066,0.000
2211120,3.113,5.066,0.000
2211200,3.113,5.066,0.000
2211210,1.831,5.615,0.122
2211220,1.831,5.615,0.122
2212000,1.831,5.615,0.488
2212010,1.099,5.554,0.488
2212020,1.099,5.554,0.488
2212100,0.916,5.188,0.732
2212110,0.916,5.188,0.732
2212120,0.916,5.188,0.732
2212200,1.404,4.395,1.038
2212210,1.404,4.395,1.038
2212220,1.404,4.395,1.038
2220000,2.014,3.418,1.404
2220010,2.014,3.418,1.404
2220020,2.014,3.418,1.404
2220100,2.319,2.747,1.770
2220110,2.319,2.747,1.770
2220120,2.319,2.747,1.770
2220200,2.136,2.319,2.075
2220210,2.136,2.319,2.075
2220212,2.136,2.319,2.075
2220222,1.831,2.319,2.075
2221002,1.831,2.319,2.075
2221012,1.587,2.747,2.014
2221022,1.587,2.747,2.014
2221102,1.587,2.747,2.014
2221112,1.709,3.113,2.075
2221122,1.709,3.113,2.075
2221202,1.709,3.113,2.075
2221212,1.648,3.052,2.258
2221222,1.648,3.052,2.258
2222002,1.648,3.052,2.258
2222012,1.404,2.869,2.563
2222022,1.404,2.869,2.563
2222102,1.404,2.869,2.930
2222112,1.282,2.930,2.930
2222122,1.282,2.930,2.930
2222202,1.465,3.052,2.747
2222212,1.465,3.052,2.747
2222222,1.465,3.052,2.747
10000002,1.648,3.296,2.563
10000012,1.648,3.296,2.563
10000022,1.648,3.296,2.563
10000102,1.831,3.723,2.502
10000112,1.831,3.723,2.502
10000122,1.831,3.723,2.502
10000202,1.953,3.601,2.258
10000212,1.953,3.601,2.258
10000222,1.953,3.601,2.258
10001002,1.831,3.052,2.075
10001012,1.831,3.052,2.075
10001022,1.831,2.563,2.136
10001102,1.831,2.563,2.136
10001112,1.831,2.563,2.136
10001122,1.770,1.892,2.380
10001202,1.770,1.892,2.380
10001212,1.770,1.892,2.380
10001222,1.648,1.709,2.441
10002002,1.648,1.709,2.441
10002012,1.648,1.709,2.441
10002022,1.526,1.587,2.625
10002102,1.526,1.587,2.625
10002112,1.526,1.587,2.625
10002122,1.648,1.953,2.563
10002202,1.648,1.953,2.563
10002212,1.648,2.075,2.502
10002222,1.343,2.075,2.502
10010002,1.343,2.075,2.502
10010012,1.282,2.258,2.380
10010022,1.282,2.258,2.380
10010101,1.282,2.258,2.380
10010112,1.221,2.136,2.197
10010121,1.221,2.136,2.197
10010201,1.221,2.136,2.197
10010211,1.221,1.831,2.502
10010221,1.221,1.831,2.502
10011001,1.221,1.831,2.502
10011011,1.221,1.404,2.808
10011021,1.221,1.404,2.808
10011101,1.221,1.404,2.441
10011111,1.404,1.404,2.441
10011121,1.404,1.404,2.441
10011201,1.648,2.075,2.441
10011211,1.648,2.075,2.441
10011221,1.648,2.075,2.441
10012001,1.587,3.174,2.380
10012011,1.587,3.174,2.380
10012021,1.587,3.174,2.380
10012101,1.709,3.967,2.136
10012111,1.709,3.967,2.136
10012121,1.709,3.967,2.136
10012201,1.831,4.333,2.136
10012211,1.831,4.333,2.136
10012221,1.831,4.333,2.380
10020001,1.831,4.333,2.380
10020011,1.831,4.333,2.380
10020021,1.343,3.967,2.441
10020101,1.343,3.967,2.441
10020111,1.343,3.967,2.441
10020121,1.221,3.418,2.686
10020201,1.221,3.418,2.686
10020211,1.221,3.418,2.686
10020221,1.221,2.441,2.930
10021001,1.221,2.441,2.930
10021011,1.221,2.441,2.930
10021021,1.160,1.648,3.357
10021101,1.160,1.648,3.357
10021111,1.160,1.648,3.601
10021121,1.465,1.343,3.601
10021201,1.465,1.343,3.601
10021211,1.648,1.648,3.723
10021221,1.648,1.648,3.723
10022001,1.648,1.648,3.723
10022011,2.075,2.014,3.601
10022021,2.075,2.014,3.601
10022101,2.075,2.014,3.601
10022111,2.075,2.380,3.540
10022121,2.075,2.380,3.540
10022201,2.075,2.380,3.540
10022211,1.770,2.441,3.662
10022221,1.770,2.441,3.662
10100000,1.770,2.441,3.662
10100010,1.648,2.136,3.906
10100020,1.648,2.136,3.906
10100100,1.648,2.136,3.967
10100110,1.709,1.892,3.967
10100120,1.709,1.892,3.967
10100200,2.380,1.709,3.967
10100210,2.380,1.709,3.967
10100220,2.380,1.709,3.967
10101000,2.625,1.770,3.845
10101010,2.625,1.770,3.845
10101020,2.625,1.770,3.845
10101100,2.258,2.197,3.601
10101110,2.258,2.197,3.601
10101120,2.258,2.197,3.601
10101200,2.197,2.258,3.052
10101210,2.197,2.258,3.052
10101220,2.197,2.258,2.930
10102000,2.136,2.563,2.930
10102010,2.136,2.563,2.930
10102020,2.441,2.686,2.747
10102100,2.441,2.686,2.747
10102110,2.441,2.686,2.747
10102120,2.686,2.075,2.686
10102200,2.686,2.075,2.686
10102210,2.686,2.075,2.686
10102220,2.563,1.343,2.686
10110000,2.563,1.343,2.686
10110010,2.563,1.343,2.686
10110020,2.502,0.732,2.930
10110100,2.502,0.732,2.930
10110110,2.502,0.732,2.930
10110120,2.747,0.488,3.113
10110200,2.747,0.488,3.113
10110210,2.747,0.366,3.296
10110220,2.747,0.366,3.296
10111000,2.747,0.366,3.296
10111010,2.686,0.366,3.540
10111020,2.686,0.366,3.540
10111100,2.686,0.366,3.540
10111110,2.808,0.488,3.662
10111120,2.808,0.488,3.662
10111200,2.808,0.488,3.662
10111210,2.869,0.854,3.723
10111220,2.869,0.854,3.723
10111222,2.869,0.854,3.723
10112002,2.563,1.404,3.662
10112012,2.563,1.404,3.662
10112022,2.563,1.404,3.174
10112102,2.319,1.892,3.174
10112112,2.319,1.892,3.174
10112122,2.563,2.380,3.235
10112202,2.563,2.380,3.235
10112212,2.563,2.380,3.235
10112222,2.991,2.625,3.418
10120002,2.991,2.625,3.418
10120012,2.991,2.625,3.418
10120022,2.991,2.625,3.906
10120102,2.991,2.625,3.906
10120112,2.991,2.625,3.906
10120122,3.113,2.441,4.333
10120202,3.113,2.441,4.333
10120212,3.113,2.441,4.395
10120222,2.930,2.258,4.395
10121002,2.930,2.258,4.395
10121012,2.441,2.319,4.150
10121022,2.441,2.319,4.150
10121102,2.441,2.319,4.150
10121112,2.563,2.563,4.150
10121122,2.563,2.563,4.150
10121202,2.563,2.563,4.150
10121212,2.869,2.319,4.089
10121222,2.869,2.319,4.089
10122002,2.869,2.319,4.089
10122012,2.991,2.136,3.967
10122022,2.991,2.136,3.967
10122102,2.991,2.136,3.967
10122112,2.991,2.136,4.211
10122122,2.991,2.136,4.211
10122202,3.296,2.014,4.639
10122212,3.296,2.014,4.639
10122222,3.296,2.014,4.639
10200002,3.296,1.770,4.822
10200012,3.296,1.770,4.822
10200022,3.296,1.770,4.822
10200102,2.930,1.770,4.822
10200112,2.930,1.770,4.822
10200122,2.930,1.770,4.822
10200202,2.380,1.770,4.761
10200212,2.380,1.770,4.761
10200222,2.380,1.770,4.761
10201002,1.953,1.648,4.639
10201012,1.953,1.648,4.639
10201022,1.953,1.526,4.700
10201101,1.648,1.526,4.700
10201111,1.648,1.526,4.700
10201121,1.648,1.160,4.395
10201201,1.648,1.160,4.395
10201211,1.648,1.160,4.395
10201221,1.892,1.099,4.150
10202001,1.892,1.099,4.150
10202011,1.892,1.099,4.150
10202021,2.136,1.099,3.723
10202101,2.136,1.099,3.723
10202111,2.136,1.099,3.723
10202121,2.136,0.854,3.479
10202201,2.136,0.854,3.479
10202211,2.136,0.854,3.662
10202221,2.319,1.038,3.662
10210001,2.319,1.038,3.662
10210011,2.930,1.526,3.845
10210021,2.930,1.526,3.845
10210101,2.930,1.526,3.845
10210111,2.869,2.136,3.540
10210121,2.869,2.136,3.540
10210201,2.869,2.136,3.540
10210211,2.625,2.869,3.357
10210221,2.625,2.869,3.357
10211001,2.625,2.869,3.357
10211011,2.502,3.540,3.296
10211021,2.502,3.540,3.296
10211101,2.502,3.540,3.296
10211111,2.258,3.784,3.296
10211121,2.258,3.784,3.296
10211201,2.197,3.540,3.418
10211211,2.197,3.540,3.418
10211221,2.197,3.540,3.418
10212001,2.075,2.502,4.028
10212011,2.075,2.502,4.028
10212021,2.075,2.502,4.028
10212101,2.075,1.892,4.333
10212111,2.075,1.892,4.333
10212121,2.075,1.892,4.333
10212201,2.014,1.404,4.395
10212211,2.014,1.404,4.395
10212221,2.014,1.404,4.395
10220001,1.892,1.099,4.395
10220011,1.892,1.099,4.395
10220021,2.075,0.916,4.517
10220101,2.075,0.916,4.517
10220111,2.075,0.916,4.517
10220121,1.770,0.854,4.272
10220201,1.770,0.854,4.272
10220211,1.770,0.854,4.272
10220221,1.526,0.549,4.089
10221001,1.526,0.549,4.089
10221011,1.526,0.549,4.089
10221021,1.221,0.549,3.784
10221101,1.221,0.549,3.784
10221111,1.221,0.549,3.784
10221121,1.282,0.793,3.540
10221201,1.282,0.793,3.540
10221211,1.282,0.854,3.235
10221221,1.526,0.854,3.235
10222001,1.526,0.854,3.235
10222011,1.770,0.793,2.930
10222020,1.770,0.793,2.930
10222100,1.770,0.793,2.930
10222110,1.953,0.732,2.869
10222120,1.953,0.732,2.869
10222200,1.953,0.732,2.869
10222210,2.380,0.732,2.747
10222220,2.380,0.732,2.747
11000000,2.380,0.732,2.747
11000010,2.625,0.793,2.869
11000020,2.625,0.793,2.869
11000100,2.625,0.793,2.563
11000110,2.869,0.732,2.563
11000120,2.869,0.732,2.563
11000200,2.808,1.038,2.258
11000210,2.808,1.038,2.258
11000220,2.808,1.038,2.258
11001000,2.441,1.343,2.075
11001010,2.441,1.343,2.075
11001020,2.441,1.343,2.075
11001100,2.563,1.160,1.953
11001110,2.563,1.160,1.953
11001120,2.563,1.160,1.953
11001200,2.625,0.854,1.892
11001210,2.625,0.854,1.892
11001220,2.625,0.854,1.892
11002000,2.625,0.671,1.648
11002010,2.625,0.671,1.648
11002020,2.625,0.793,1.770
11002100,2.625,0.793,1.770
11002110,2.625,0.793,1.770
11002120,2.747,1.404,1.770
11002122,2.747,1.404,1.770
11002202,2.747,1.404,1.770
11002212,2.869,1.587,1.587
11002222,2.869,1.587,1.587
11010002,2.869,1.587,1.587
11010012,2.930,1.587,1.648
11010022,2.930,1.587,1.648
11010102,2.930,1.587,1.648
11010112,2.991,1.709,1.892
11010122,2.991,1.709,1.892
11010202,2.991,1.709,2.197
11010212,2.869,1.465,2.197
11010222,2.869,1.465,2.197
11011002,2.930,1.343,2.258
11011012,2.930,1.343,2.258
11011022,2.930,1.343,2.258
11011102,3.235,1.160,2.136
11011112,3.235,1.160,2.136
11011122,3.235,1.160,2.136
11011202,3.418,1.160,2.197
11011212,3.418,1.160,2.197
11011222,3.418,1.160,2.197
11012002,3.418,1.343,2.441
11012012,3.418,1.343,2.441
11012022,3.418,1.343,2.563
11012102,3.296,1.404,2.563
11012112,3.296,1.404,2.563
11012122,3.479,1.343,2.869
11012202,3.479,1.343,2.869
11012212,3.479,1.343,2.869
11012222,3.601,1.404,2.930
11020002,3.601,1.404,2.930
11020012,3.601,1.404,2.930
11020022,3.418,1.892,3.296
11020102,3.418,1.892,3.296
11020112,3.418,1.892,3.296
11020122,2.991,2.197,3.540
11020202,2.991,2.197,3.540
11020212,2.991,2.197,3.540
11020222,2.747,2.441,3.662
11021002,2.747,2.441,3.662
11021012,2.808,2.747,3.723
11021022,2.808,2.747,3.723
11021102,2.808,2.747,3.723
11021112,2.747,2.686,3.967
11021122,2.747,2.686,3.967
11021202,2.747,2.686,3.967
11021212,2.563,2.319,3.845
11021222,2.563,2.319,3.845
11022002,2.563,2.319,3.845
11022012,2.319,1.953,3.845
11022022,2.319,1.953,3.845
11022102,2.319,1.953,4.150
11022112,2.136,1.709,4.150
11022122,2.136,1.709,4.150
11022202,2.380,1.770,4.211
11022212,2.380,1.770,4.211
11022222,2.380,1.770,4.211
11100002,2.625,2.075,4.211
11100012,2.625,2.075,4.211
11100022,2.625,2.075,4.211
11100102,2.869,2.319,4.272
11100112,2.869,2.319,4.272
11100122,2.869,2.319,4.272
11100202,2.930,2.686,4.272
11100212,2.930,2.686,4.272
11100222,2.930,2.686,4.517
11101002,2.930,2.747,4.517
11101012,2.930,2.747,4.517
11101022,2.625,2.502,4.761
11101102,2.625,2.502,4.761
11101112,2.625,2.502,4.761
11101122,2.258,1.953,4.822
11101202,2.258,1.953,4.822
11101212,2.258,1.953,4.822
11101222,1.953,1.709,4.883
11102002,1.953,1.709,4.883
11102012,1.953,1.709,4.883
11102022,1.953,1.465,4.822
11102101,1.953,1.465,4.822
11102111,1.953,1.465,4.822
11102121,2.136,1.343,4.700
11102201,2.136,1.343,4.700
11102211,2.136,1.648,4.517
11102221,2.258,1.648,4.517
11110001,2.258,1.648,4.517
11110011,2.502,2.197,4.395
11110021,2.502,2.197,4.395
11110101,2.502,2.197,4.395
11110111,2.502,2.441,4.089
11110121,2.502,2.441,4.089
11110201,2.502,2.441,4.089
11110211,2.563,2.563,4.150
11110221,2.563,2.563,4.150
11111001,2.563,2.563,4.150
11111011,2.502,2.441,4.150
11111021,2.502,2.441,4.150
11111101,2.502,2.014,4.272
11111111,2.319,2.014,4.272
11111121,2.319,2.014,4.272
11111201,1.892,1.953,4.150
11111211,1.892,1.953,4.150
11111221,1.892,1.953,4.150
11112001,1.709,2.197,3.784
11112011,1.709,2.197,3.784
11112021,1.709,2.197,3.784
11112101,1.892,2.319,3.418
11112111,1.892,2.319,3.418
11112121,1.892,2.319,3.418
11112201,2.319,2.075,3.174
11112211,2.319,2.075,3.174
11112221,2.319,1.587,3.296
11120001,2.502,1.587,3.296
11120011,2.502,1.587,3.296
11120021,2.686,0.793,3.601
11120101,2.686,0.793,3.601
11120111,2.686,0.793,3.601
11120121,2.930,0.549,3.601
11120201,2.930,0.549,3.601
11120211,2.930,0.549,3.601
11120221,2.869,0.793,3.845
11121001,2.869,0.793,3.845
11121011,2.869,0.793,3.845
11121021,3.174,1.282,3.906
11121101,3.174,1.282,3.906
11121111,3.296,1.648,3.967
11121121,3.296,1.648,3.967
11121201,3.296,1.648,3.967
11121211,2.869,1.587,3.784
11121221,2.869,1.587,3.784
11122001,2.869,1.587,3.784
11122011,2.502,1.648,3.906
11122021,2.502,1.648,3.906
11122101,2.502,1.648,3.906
11122111,2.502,1.343,3.967
11122121,2.502,1.343,3.967
11122201,2.502,1.343,4.089
11122211,2.563,1.099,4.089
11122221,2.563,1.099,4.089
11200001,2.625,0.977,4.089
11200011,2.625,0.977,4.089
11200021,2.625,0.977,4.089
11200101,2.258,0.854,3.601
11200111,2.258,0.854,3.601
11200121,2.258,0.854,3.601
11200201,2.197,1.038,3.723
11200211,2.197,1.038,3.723
11200221,2.197,1.038,3.723
11201001,2.136,1.404,3.845
11201011,2.136,1.404,3.845
11201021,2.136,1.404,3.967
11201101,2.136,1.770,3.967
11201111,2.136,1.770,3.967
11201121,2.319,1.953,4.089
11201201,2.319,1.953,4.089
11201211,2.319,1.953,4.089
11201221,2.563,2.075,3.784
11202001,2.563,2.075,3.784
11202011,2.563,2.075,3.784
11202021,2.747,2.502,3.479
11202101,2.747,2.502,3.479
11202111,2.747,2.502,3.479
11202121,3.113,2.686,3.296
11202201,3.113,2.686,3.296
11202211,3.113,2.441,3.174
11202221,3.723,2.441,3.174
11210001,3.723,2.441,3.174
11210011,4.150,2.136,2.930
11210021,4.150,2.136,2.930
11210101,4.150,2.136,2.930
11210111,4.089,1.465,2.563
11210121,4.089,1.465,2.563
11210201,4.089,1.465,2.563
11210211,3.357,1.221,2.747
11210221,3.357,1.221,2.747
11211001,3.357,1.221,2.747
11211011,2.441,1.160,2.869
11211021,2.441,1.160,2.869
11211101,2.014,1.587,2.625
11211111,2.014,1.587,2.625
11211121,2.014,1.587,2.625
11211201,1.892,2.014,2.441
11211211,1.892,2.014,2.441
11211221,1.892,2.014,2.441
11212001,2.014,2.441,2.441
11212011,2.014,2.441,2.441
11212021,2.014,2.441,2.441
11212101,2.197,2.747,2.441
11212111,2.197,2.747,2.441
11212121,2.197,2.747,2.441
11212201,2.625,2.869,2.502
11212211,2.625,2.869,2.502
11212221,2.930,2.808,2.441
11220001,2.930,2.808,2.441
11220011,2.930,2.808,2.441
11220021,3.052,2.686,2.136
11220101,3.052,2.686,2.136
11220111,3.052,2.686,2.136
11220121,2.930,2.502,2.258
11220201,2.930,2.502,2.258
11220211,2.930,2.502,2.258
11220221,2.869,2.197,2.319
11221001,2.869,2.197,2.319
11221011,2.869,2.197,2.319
11221021,2.686,1.892,2.441
11221101,2.686,1.892,2.441
11221111,2.747,1.709,2.686
11221121,2.747,1.709,2.686
11221201,2.747,1.709,2.686
11221211,2.869,1.648,2.747
11221221,2.869,1.648,2.747
11222001,2.869,1.648,2.747
11222011,2.808,2.014,2.808
11222021,2.808,2.014,2.808
11222101,2.808,2.014,2.808
11222111,2.441,2.625,2.808
11222121,2.441,2.625,2.808
11222201,2.441,2.625,2.808
11222211,2.258,3.052,2.930
11222221,2.258,3.052,2.930
12000001,2.441,3.052,2.869
12000011,2.441,3.052,2.869
12000021,2.441,3.052,2.869
12000101,2.197,2.808,2.747
12000111,2.197,2.808,2.747
12000121,2.197,2.808,2.747
12000201,1.526,2.075,3.174
12000211,1.526,2.075,3.174
12000221,1.526,2.075,3.174
12001001,0.977,0.916,3.601
12001011,0.977,0.916,3.601
12001021,0.977,0.916,3.601
12001101,0.549,-0.183,3.662
12001111,0.549,-0.183,3.662
12001121,0.916,-0.732,3.540
12001201,0.916,-0.732,3.540
12001211,0.916,-0.732,3.540
12001221,1.648,-0.671,3.418
12002002,1.648,-0.671,3.418
12002012,1.648,-0.671,3.418
12002022,2.502,-0.244,3.052
12002102,2.502,-0.244,3.052
12002112,2.502,1.587,2.808
12002122,2.808,1.587,2.808
12002202,2.808,1.587,2.808
12002212,2.441,3.174,2.869
12002222,2.441,3.174,2.869
12010002,2.441,3.174,2.869
12010012,2.869,4.089,2.747
12010022,2.869,4.089,2.747
12010102,2.869,4.089,2.747
12010112,2.991,4.517,2.319
12010122,2.991,4.517,2.319
12010202,2.991,4.517,2.319
12010212,2.747,4.272,2.136
12010222,2.747,4.272,2.136
12011002,2.014,3.418,2.563
12011012,2.014,3.418,2.563
12011022,2.014,3.418,2.563
12011102,1.587,2.441,3.052
12011112,1.587,2.441,3.052
12011122,1.587,2.441,3.052
12011202,1.526,1.343,3.296
12011212,1.526,1.343,3.296
12011222,1.526,1.343,3.296
12012002,1.526,0.610,3.418
12012012,1.526,0.610,3.418
12012022,1.526,0.610,3.418
12012102,1.404,0.549,3.357
12012112,1.404,0.549,3.357
12012122,1.160,0.977,3.296
12012202,1.160,0.977,3.296
12012212,1.160,0.977,3.296
12012222,1.038,1.099,3.296
12020002,1.038,1.099,3.296
12020012,1.038,1.099,3.296
12020022,1.282,1.221,3.052
12020102,1.282,1.221,3.052
12020112,1.282,1.221,3.052
12020122,1.526,1.282,3.296
12020202,1.526,1.282,3.296
12020212,1.526,1.282,3.296
12020222,1.587,0.977,3.784
12021002,1.587,0.977,3.784
12021012,1.709,0.366,4.028
12021022,1.709,0.366,4.028
12021102,1.709,0.366,4.028
12021112,1.831,0.122,4.456
12021122,1.831,0.122,4.456
12021202,1.831,0.122,4.456
12021212,1.831,-0.061,4.761
12021222,1.831,-0.061,4.761
12022002,1.831,-0.061,4.761
12022012,1.770,0.427,4.578
12022022,1.770,0.427,4.578
12022102,1.770,0.916,4.456
12022112,1.709,0.916,4.456
12022122,1.709,0.916,4.456
12022202,1.587,1.404,4.150
12022212,1.587,1.404,4.150
12022222,1.587,1.404,4.150
12100002,2.014,1.831,3.418
12100012,2.014,1.831,3.418
12100022,2.014,1.831,3.418
12100102,2.686,2.136,3.052
12100112,2.686,2.136,3.052
12100122,2.686,2.136,3.052
12100202,2.869,2.563,2.563
12100212,2.869,2.563,2.563
12100222,2.686,3.235,2.563
12101002,2.686,3.235,2.563
12101012,2.686,3.235,2.563
12101022,2.197,3.235,2.747
12101102,2.197,3.235,2.747
12101112,2.197,3.235,2.747
12101122,1.770,2.258,3.174
12101202,1.770,2.258,3.174
12101212,1.770,2.258,3.174
12101222,1.526,0.977,3.906
12102002,1.526,0.977,3.906
12102012,1.526,0.977,3.906
12102022,1.892,-0.061,4.517
12102102,1.892,-0.061,4.517
12102112,2.502,-0.366,4.700
12102122,2.502,-0.366,4.700
12102202,2.502,-0.366,4.700
12102212,3.235,-0.183,4.578
12110000,3.235,-0.183,4.578
12110010,3.235,-0.183,4.578
12110020,3.479,0.793,4.150
12110100,3.479,0.793,4.150
12110110,3.479,0.793,3.845
12110120,3.845,1.770,3.845
12110200,3.845,1.770,3.845
12110210,4.150,2.136,3.662
12110220,4.150,2.136,3.662
12111000,4.150,2.136,3.662
12111010,4.089,2.136,3.479
12111020,4.089,2.136,3.479
12111100,4.089,2.136,3.479
12111110,3.723,2.136,3.357
12111120,3.723,2.136,3.357
12111200,3.723,2.136,3.357
12111210,3.296,2.136,3.418
12111220,3.296,2.136,3.418
12112000,3.296,2.136,3.662
12112010,2.869,2.136,3.662
12112020,2.869,2.136,3.662
12112100,2.563,2.014,4.150
12112110,2.563,2.014,4.150
12112120,2.563,2.014,4.150
12112200,2.625,1.648,4.395
12112210,2.625,1.648,4.395
12112220,2.625,1.648,4.395
12120000,2.563,1.282,4.517
12120010,2.563,1.282,4.517
12120020,2.563,1.282,4.517
12120100,2.930,1.221,4.395
12120110,2.930,1.221,4.395
12120120,2.930,1.648,4.211
12120200,3.174,1.648,4.211
12120210,3.174,1.648,4.211
12120220,3.296,2.075,4.211
12121000,3.296,2.075,4.211
12121010,3.296,2.075,4.211
12121020,3.113,2.319,3.967
12121100,3.113,2.319,3.967
12121110,3.113,2.319,3.967
12121120,3.357,2.380,3.723
12121200,3.357,2.380,3.723
12121210,3.357,2.380,3.723
12121220,3.296,2.625,3.479
12122000,3.296,2.625,3.479
12122010,3.174,2.686,3.418
12122020,3.174,2.686,3.418
12122100,3.174,2.686,3.418
12122110,3.174,2.258,3.418
12122120,3.174,2.258,3.418
12122200,3.174,2.258,3.418
12122210,3.357,1.770,3.418
12122220,3.357,1.770,3.418
12200000,3.357,1.770,3.418
12200010,3.601,1.099,3.662
12200020,3.601,1.099,3.662
12200100,3.601,1.099,3.662
12200110,3.296,0.549,4.089
12200120,3.296,0.549,4.089
12200200,2.991,0.610,4.333
12200210,2.991,0.610,4.333
12200220,2.991,0.610,4.333
12201000,2.686,0.427,4.395
12201010,2.686,0.427,4.395
12201020,2.686,0.427,4.395
12201100,2.563,0.122,4.150
12201110,2.563,0.122,4.150
12201120,2.563,0.122,4.150
12201200,2.686,0.366,3.967
12201210,2.686,0.366,3.967
12201220,2.686,0.366,3.784
12202000,3.296,0.793,3.784
12202010,3.296,0.793,3.784
12202020,4.028,0.916,3.601
12202100,4.028,0.916,3.601
12202110,4.028,0.916,3.601
12202120,4.272,1.526,3.418
12202200,4.272,1.526,3.418
12202210,4.272,1.526,3.418
12202220,3.906,2.258,3.174
12210000,3.906,2.258,3.174
12210010,3.906,2.258,3.174
12210020,3.357,2.686,2.869
12210100,3.357,2.686,2.869
12210110,3.357,2.686,2.869
12210120,2.686,2.808,2.869
12210200,2.686,2.808,2.869
12210210,2.563,2.502,3.235
12210220,2.563,2.502,3.235
12211000,2.563,2.502,3.235
12211010,2.808,1.648,3.967
12211020,2.808,1.648,3.967
12211100,2.808,1.648,3.967
12211110,2.625,1.099,4.456
12211120,2.625,1.099,4.456
12211200,2.625,1.099,4.456
12211210,2.319,0.732,4.456
12211220,2.319,0.732,4.456
12212000,2.319,0.732,4.028
12212010,1.831,0.732,4.028
12212020,1.831,0.732,4.028
12212100,1.709,0.854,3.845
12212110,1.709,0.854,3.845
12212120,1.709,0.854,3.845
12212200,2.075,0.916,3.906
12212210,2.075,0.916,3.906
12212220,2.075,0.916,3.906
12220000,2.319,0.732,3.784
12220010,2.319,0.732,3.784
12220020,2.319,0.732,3.784
12220100,2.441,0.854,3.662
12220110,2.441,0.854,3.662
12220120,2.563,1.343,3.479
12220200,2.563,1.343,3.479
12220210,2.563,1.343,3.479
12220220,2.625,1.770,3.235
12221000,2.625,1.770,3.235
12221010,2.625,1.770,3.235
12221020,2.869,1.953,3.174
12221100,2.869,1.953,3.174
12221110,2.869,1.953,3.174
12221120,2.747,1.953,3.296
12221200,2.747,1.953,3.296
12221210,2.747,1.953,3.296
12221220,2.625,1.648,3.601
12222000,2.625,1.648,3.601
12222010,2.686,1.221,3.845
12222020,2.686,1.221,3.845
12222100,2.686,1.221,3.845
12222110,2.625,0.732,3.784
12222120,2.625,0.732,3.784
12222200,2.625,0.732,3.784
12222210,2.747,0.366,3.845
12222220,2.747,0.366,3.845
20000000,2.747,0.366,3.845
20000010,2.930,0.366,3.662
20000020,2.930,0.366,3.662
20000100,2.930,0.366,3.418
20000110,3.540,0.977,3.418
20000120,3.540,0.977,3.418
20000200,4.150,1.831,2.991
20000210,4.150,1.831,2.991
20000220,4.150,1.831,2.991
20001000,4.211,2.747,2.686
20001010,4.211,2.747,2.686
20001020,4.211,2.747,2.686
20001100,4.028,3.174,2.441
20001110,4.028,3.174,2.441
20001120,4.028,3.174,2.441
20001200,3.540,3.235,2.625
20001210,3.540,3.235,2.625
20001220,3.540,3.235,2.869
20002000,3.113,2.747,2.869
20002010,3.113,2.747,2.869
20002020,2.625,2.014,3.235
20002100,2.625,2.014,3.235
20002110,2.625,2.014,3.235
20002120,2.380,1.587,3.662
20002200,2.380,1.587,3.662
20002210,2.380,1.587,3.662
20002220,2.380,1.526,3.784
20010000,2.380,1.526,3.784
20010010,2.380,1.526,3.784
20010020,2.197,1.709,3.845
20010100,2.197,1.709,3.845
20010110,2.197,1.648,3.784
20010120,1.831,1.648,3.784
20010200,1.831,1.648,3.784
20010210,1.709,1.648,3.540
20010220,1.709,1.648,3.540
20011000,1.709,1.648,3.540
20011010,2.014,1.526,3.418
20011020,2.014,1.526,3.418
20011100,2.014,1.526,3.418
20011110,2.136,1.587,3.418
20011120,2.136,1.587,3.418
20011200,2.136,1.587,3.418
20011210,2.319,2.258,3.174
20011220,2.319,2.258,3.174
20012000,2.319,2.625,2.869
20012010,2.319,2.625,2.869
20012020,2.319,2.625,2.869
20012100,2.441,2.808,2.502
20012110,2.441,2.808,2.502
20012120,2.441,2.808,2.502
20012200,2.380,2.625,2.686
20012210,2.380,2.625,2.686
20012220,2.380,2.625,2.686
20020000,2.380,2.380,2.869
20020010,2.380,2.380,2.869
20020020,2.380,2.380,2.869
20020100,2.380,2.075,3.113
20020110,2.380,2.075,3.113
20020120,2.319,1.587,3.357
20020200,2.319,1.587,3.357
20020210,2.319,1.587,3.357
20020220,2.441,1.587,3.357
20021000,2.441,1.587,3.357
20021010,2.441,1.587,3.357
20021020,2.258,2.075,3.296
20021100,2.258,2.075,3.296
20021110,2.258,2.075,3.296
20021120,1.892,2.930,3.235
20021200,1.892,2.930,3.235
20021210,1.892,2.930,3.174
20021220,1.831,3.540,3.174
20022000,1.831,3.540,3.174
20022010,1.709,3.662,2.991
20022020,1.709,3.662,2.991
20022100,1.709,3.662,2.991
20022110,1.648,3.296,3.357
20022120,1.648,3.296,3.357
20022200,1.648,3.296,3.357
20022210,1.587,2.808,3.479
20022220,1.587,2.808,3.479
20100000,1.587,2.808,3.479
20100010,1.526,2.502,3.662
20100020,1.526,2.502,3.662
20100100,1.526,2.502,3.479
20100110,1.892,2.441,3.479
20100120,1.892,2.441,3.479
20100200,2.014,2.869,3.235
20100210,2.014,2.869,3.235
20100220,2.014,2.869,3.235
20101000,1.953,3.174,3.174
20101010,1.953,3.174,3.174
20101020,1.953,3.174,3.174
20101100,2.136,3.235,3.174
20101110,2.136,3.235,3.174
20101120,2.136,3.235,3.174
20101200,2.014,2.808,2.991
20101210,2.014,2.808,2.991
20101220,2.014,2.808,3.052
20102000,1.831,2.563,3.052
20102010,1.831,2.563,3.052
20102020,1.831,2.319,3.052
20102100,1.831,2.319,3.052
20102110,1.831,2.319,3.052
20102120,1.648,2.014,3.174
20102200,1.648,2.014,3.174
20102210,1.648,2.014,3.174
20102220,1.648,1.404,3.174
20110000,1.648,1.404,3.174
20110010,1.648,1.404,3.174
20110020,1.953,1.038,3.174
20110100,1.953,1.038,3.174
20110110,1.953,1.343,3.296
20110120,2.258,1.343,3.296
20110200,2.258,1.343,3.296
20110210,2.258,2.014,3.113
20110220,2.258,2.014,3.113
20111000,2.258,2.014,3.113
20111010,2.014,2.380,3.296
20111020,2.014,2.380,3.296
20111100,2.014,2.380,3.296
20111110,1.526,2.563,3.418
20111120,1.526,2.563,3.418
20111200,1.526,2.563,3.418
20111210,1.160,2.441,3.723
20111220,1.160,2.441,3.723
20112000,1.221,2.014,3.601
20112010,1.221,2.014,3.601
20112020,1.221,2.014,3.601
20112100,1.648,1.770,3.479
20112110,1.648,1.770,3.479
20112120,1.648,1.770,3.479
20112200,1.892,1.831,3.723
20112210,1.892,1.831,3.723
20112220,1.892,1.831,3.723
20120000,2.197,1.831,4.028
20120010,2.197,1.831,4.028
20120020,2.197,1.831,4.028
20120100,2.258,1.343,4.211
20120110,2.258,1.343,4.211
20120120,2.197,1.221,4.089
20120200,2.197,1.221,4.089
20120210,2.197,1.221,4.089
20120220,2.075,1.648,4.150
20121000,2.075,1.648,4.150
20121010,2.075,1.648,4.150
20121020,1.892,2.014,4.578
20121100,1.892,2.014,4.578
20121110,1.892,2.014,4.578
20121120,1.587,2.197,4.761
20121200,1.587,2.197,4.761
20121210,1.587,2.197,4.517
20121220,1.343,2.136,4.517
20122000,1.343,2.136,4.517
20122010,1.099,1.892,4.211
20122020,1.099,1.892,4.211
20122100,1.099,1.892,4.211
20122110,1.343,2.014,3.845
20122120,1.343,2.014,3.845
20122200,1.343,2.014,3.845
20122210,1.648,2.136,3.479
20122220,1.648,2.136,3.479
20200000,1.648,2.136,3.479
20200010,1.953,2.319,3.418
20200020,1.953,2.319,3.418
20200100,1.953,2.319,3.113
20200110,1.892,2.441,3.113
20200120,1.892,2.441,3.113
20200200,2.014,2.563,3.174
20200210,2.014,2.563,3.174
20200220,2.014,2.563,3.174
20201000,2.014,2.380,3.174
20201010,2.014,2.380,3.174
20201020,2.014,2.380,3.174
20201100,1.831,2.197,3.296
20201110,1.831,2.197,3.296
20201120,1.831,2.197,3.296
20201200,1.709,2.197,3.357
20201210,1.709,2.197,3.357
20201220,1.709,1.831,3.479
20202000,1.892,1.831,3.479
20202010,1.892,1.831,3.479
20202020,2.075,1.587,3.479
20202100,2.075,1.587,3.479
20202110,2.075,1.587,3.479
20202120,1.953,1.038,3.479
20202200,1.953,1.038,3.479
20202210,1.953,1.038,3.479
20202220,1.709,1.160,3.540
20210000,1.709,1.160,3.540
20210010,1.709,1.160,3.540
20210020,1.343,1.465,3.296
20210100,1.343,1.465,3.296
20210110,1.282,1.770,3.113
20210120,1.282,1.770,3.113
20210200,1.282,1.770,3.113
20210210,1.831,2.014,2.808
20210220,1.831,2.014,2.808
20211000,1.831,2.014,2.808
20211010,2.563,2.319,2.441
20211020,2.563,2.319,2.441
20211100,2.563,2.319,2.441
20211110,3.296,2.563,2.258
20211120,3.296,2.563,2.258
20211200,3.296,2.563,2.319
20211210,3.479,2.502,2.319
20211220,3.479,2.502,2.319
20212000,2.991,2.441,2.686
20212010,2.991,2.441,2.686
20212020,2.991,2.441,2.686
20212100,1.953,2.197,3.113
20212110,1.953,2.197,3.113
20212120,1.953,2.197,3.113
20212200,1.465,1.831,3.235
20212210,1.465,1.831,3.235
20212220,1.465,1.831,3.235
20220000,1.526,1.465,3.296
20220010,1.526,1.465,3.296
20220020,1.526,1.465,3.296
20220100,1.648,1.221,3.296
20220110,1.648,1.221,3.296
20220120,1.648,0.854,3.418
20220200,1.648,0.854,3.418
20220210,1.648,0.854,3.418
20220220,1.770,1.099,3.235
20221000,1.770,1.099,3.235
20221010,1.770,1.099,3.235
20221020,2.380,1.282,3.174
20221100,2.380,1.282,3.174
20221110,2.380,1.282,3.174
20221120,2.930,1.587,3.174
20221200,2.930,1.587,3.174
20221210,2.930,1.587,3.174
20221220,3.113,2.014,3.174
20222000,3.113,2.014,3.174
20222010,2.747,2.380,3.418
20222020,2.747,2.380,3.418
20222100,2.747,2.380,3.418
20222110,2.136,2.563,3.723
20222120,2.136,2.563,3.723
20222200,2.136,2.563,3.723
20222210,1.343,2.502,4.150
20222220,1.343,2.502,4.150
21000000,1.343,2.502,4.150
21000010,0.671,1.892,4.333
21000020,0.671,1.892,4.333
21000100,0.671,1.404,4.211
21000110,0.427,1.404,4.211
21000120,0.427,1.404,4.211
21000200,0.977,1.160,4.150
21000210,0.977,1.160,4.150
21000220,0.977,1.160,4.150
21001000,1.587,1.343,3.906
21001010,1.587,1.343,3.906
21001020,1.587,1.343,3.906
21001100,2.197,1.709,3.662
21001110,2.197,1.709,3.662
21001120,2.197,1.709,3.662
21001200,2.441,2.075,3.174
21001210,2.441,2.075,3.174
21001220,2.686,2.136,3.052
21002000,2.686,2.136,3.052
21002010,2.686,2.136,3.052
21002020,2.502,1.892,3.052
21002100,2.502,1.892,3.052
21002110,2.502,1.892,3.052
21002120,2.014,1.526,3.357
21002200,2.014,1.526,3.357
21002210,2.014,1.526,3.357
21002220,1.648,0.916,3.479
21010000,1.648,0.916,3.479
21010010,1.648,0.916,3.479
21010020,1.404,0.671,3.540
21010100,1.404,0.671,3.540
21010110,1.343,1.160,3.723
21010120,1.343,1.160,3.723
21010200,1.343,1.160,3.723
21010210,1.648,1.709,3.723
21010220,1.648,1.709,3.723
21011000,1.648,1.709,3.723
21011010,1.831,2.197,3.845
21011020,1.831,2.197,3.845
21011100,1.831,2.197,3.845
21011110,1.953,2.502,3.845
21011120,1.953,2.502,3.845
21011200,1.953,2.502,3.662
21011210,2.136,2.747,3.662
21011220,2.136,2.747,3.662
21012000,2.319,2.991,3.662
21012010,2.319,2.991,3.662
21012020,2.319,2.991,3.662
21012100,2.075,2.869,3.784
21012110,2.075,2.869,3.784
21012120,2.075,2.869,3.784
21012200,1.709,2.563,3.601
21012210,1.709,2.563,3.601
21012220,1.709,2.563,3.601
21020000,1.587,2.197,3.540
21020010,1.587,2.197,3.540
21020020,1.587,2.197,3.296
21020100,1.770,1.892,3.296
21020110,1.770,1.892,3.296
21020120,2.258,1.892,3.418
21020200,2.258,1.892,3.418
21020210,2.258,1.892,3.418
21020220,2.441,1.770,3.357
21021000,2.441,1.770,3.357
21021010,2.441,1.770,3.357
21021020,1.953,1.953,3.479
21021100,1.953,1.953,3.479
21021110,1.953,1.953,3.479
21021120,1.404,1.770,3.723
21021200,1.404,1.770,3.723
21021210,1.404,1.282,3.845
21021220,1.099,1.282,3.845
21022000,1.099,1.282,3.845
21022010,1.221,1.160,4.028
21022020,1.221,1.160,4.028
21022100,1.221,1.160,4.028
21022110,1.770,1.221,3.845
21022120,1.770,1.221,3.845
21022200,1.770,1.221,3.845
21022210,2.258,1.526,3.479
21022220,2.258,1.526,3.479
21100000,2.258,1.526,3.479
21100010,2.441,2.075,3.296
21100020,2.441,2.075,3.296
21100100,2.441,2.197,2.869
21100110,2.319,2.197,2.869
21100120,2.319,2.197,2.869
21100200,2.441,1.892,2.869
21100210,2.441,1.892,2.869
21100220,2.441,1.892,2.869
21101000,2.014,1.465,3.113
21101010,2.014,1.465,3.113
21101020,2.014,1.465,3.113
21101100,1.587,1.221,3.357
21101110,1.587,1.221,3.357
21101120,1.587,1.221,3.357
21101200,1.221,0.854,3.479
21101210,1.221,0.854,3.479
21101220,1.404,1.160,3.357
21102000,1.404,1.160,3.357
21102010,1.404,1.160,3.357
21102020,1.526,1.770,3.418
21102100,1.526,1.770,3.418
21102110,1.526,1.770,3.418
21102120,1.526,2.502,3.418
21102200,1.526,2.502,3.418
21102210,1.526,2.502,3.418
21102220,1.526,2.930,2.930
21110000,1.526,2.930,2.930
21110010,1.526,2.930,2.625
21110020,1.404,3.418,2.625
21110100,1.404,3.418,2.625
21110110,1.526,3.540,2.625
21110120,1.526,3.540,2.625
21110200,1.526,3.540,2.625
21110210,1.526,3.113,2.502
21110220,1.526,3.113,2.502
21111000,1.526,3.113,2.502
21111010,1.770,2.747,2.563
21111020,1.770,2.747,2.563
21111100,1.770,2.747,2.563
21111110,1.709,2.319,2.563
21111120,1.709,2.319,2.563
21111200,1.709,2.319,2.625
21111210,1.709,2.075,2.625
21111220,1.709,2.075,2.625
21112000,1.282,2.258,2.808
21112010,1.282,2.258,2.808
21112020,1.282,2.258,2.808
21112100,0.916,2.380,3.296
21112110,0.916,2.380,3.296
21112120,0.916,2.380,3.296
21112200,0.671,2.197,3.540
21112210,0.671,2.197,3.540
21112220,0.671,2.197,3.540
21120000,1.038,2.014,3.601
21120010,1.038,2.014,3.601
21120020,1.038,2.075,3.784
21120100,1.343,2.075,3.784
21120110,1.343,2.075,3.784
21120120,1.221,2.441,3.723
21120200,1.221,2.441,3.723
21120210,1.221,2.441,3.723
21120220,1.282,2.563,3.784
21121000,1.282,2.563,3.784
21121010,1.282,2.563,3.784
21121020,1.831,2.747,3.662
21121100,1.831,2.747,3.662
21121110,1.831,2.747,3.662
21121120,2.014,2.686,3.479
21121200,2.014,2.686,3.479
21121210,2.014,2.441,3.479
21121220,2.136,2.441,3.479
21122000,2.136,2.441,3.479
21122010,1.953,1.831,3.540
21122020,1.953,1.831,3.540
21122100,1.953,1.831,3.540
21122110,1.770,1.099,3.601
21122120,1.770,1.099,3.601
21122200,1.770,1.099,3.601
21122210,1.709,0.793,3.662
21122220,1.709,0.793,3.662
21200000,1.709,0.793,3.662
21200010,1.892,0.732,3.479
21200020,1.892,0.732,3.479
21200100,2.319,1.099,3.418
21200110,2.319,1.099,3.418
21200120,2.319,1.099,3.418
21200200,2.502,1.404,3.601
21200210,2.502,1.404,3.601
21200220,2.502,1.404,3.601
21201000,2.441,1.038,3.662
21201010,2.441,1.038,3.662
21201020,2.441,1.038,3.662
21201100,2.197,0.671,3.723
21201110,2.197,0.671,3.723
21201120,2.197,0.671,3.723
21201200,2.014,0.732,3.967
21201210,2.014,0.732,3.967
21201220,2.014,1.404,4.150
21202000,1.831,1.404,4.150
21202010,1.831,1.404,4.150
21202020,1.770,1.892,4.028
21202100,1.770,1.892,4.028
21202110,1.770,1.892,4.028
21202120,1.709,1.709,4.028
21202200,1.709,1.709,4.028
21202210,1.709,1.709,4.028
21202220,1.587,1.221,4.395
21210000,1.587,1.221,4.395
21210010,1.587,1.221,4.395
21210020,1.465,0.732,4.822
21210100,1.465,0.732,4.822
21210110,1.343,0.610,4.944
21210120,1.343,0.610,4.944
21210200,1.343,0.610,4.944
21210210,1.282,1.160,4.517
21210220,1.282,1.160,4.517
21211000,1.282,1.160,4.517
21211010,1.282,1.892,4.028
21211020,1.282,1.892,4.028
21211100,1.282,1.892,4.028
21211110,1.587,2.441,3.479
21211120,1.587,2.441,3.479
21211200,1.587,2.441,3.235
21211210,2.014,2.808,3.235
21211220,2.014,2.808,3.235
21212000,1.953,3.052,3.113
21212010,1.953,3.052,3.113
21212020,1.953,3.052,3.113
21212100,2.136,3.113,2.869
21212110,2.136,3.113,2.869
21212120,2.136,3.113,2.869
21212200,2.197,3.174,2.808
21212210,2.197,3.174,2.808
21212220,2.197,3.174,2.808
21220000,1.892,2.686,2.991
21220010,1.892,2.686,2.991
21220020,1.892,2.014,3.418
21220100,1.526,2.014,3.418
21220110,1.526,2.014,3.418
21220120,1.221,1.404,3.784
21220200,1.221,1.404,3.784
21220210,1.221,1.404,3.784
21220220,1.404,1.038,3.784
21221000,1.404,1.038,3.784
21221010,1.404,1.038,3.784
21221020,1.892,1.038,3.540
21221100,1.892,1.038,3.540
21221110,1.892,1.038,3.540
21221120,1.892,1.709,3.540
21221200,1.892,1.709,3.540
21221210,1.892,1.831,3.418
21221220,1.892,1.831,3.418
21222000,1.892,1.831,3.418
21222010,1.709,1.648,3.357
21222020,1.709,1.648,3.357
21222100,1.709,1.648,3.357
21222110,1.953,1.465,3.113
21222120,1.953,1.465,3.113
21222200,1.953,1.465,3.113
21222210,2.258,1.343,3.052
21222220,2.258,1.343,3.052
22000000,2.258,1.343,3.052
22000010,2.380,1.404,2.869
22000020,2.380,1.404,2.869
22000100,2.258,1.465,2.625
22000110,2.258,1.465,2.625
22000120,2.258,1.465,2.625
22000200,2.197,1.404,2.380
22000210,2.197,1.404,2.380
22000220,2.197,1.404,2.380
22001000,2.441,1.038,2.625
22001010,2.441,1.038,2.625
22001020,2.441,1.038,2.625
22001100,2.625,0.488,2.563
22001110,2.625,0.488,2.563
22001120,2.625,0.488,2.563
22001200,2.441,0.488,2.563
22001210,2.441,0.488,2.563
22001220,2.014,0.427,2.747
22002000,2.014,0.427,2.747
22002010,2.014,0.427,2.747
22002020,2.014,0.183,2.869
22002100,2.014,0.183,2.869
22002110,2.014,0.183,2.869
22002120,2.014,0.244,2.808
22002200,2.014,0.244,2.808
22002210,2.014,0.244,2.808
22002220,2.075,0.793,2.563
22010000,2.075,0.793,2.563
22010010,2.075,0.793,2.258
22010020,2.075,1.648,2.258
22010100,2.075,1.648,2.258
22010110,2.258,2.197,1.892
22010120,2.258,2.197,1.892
22010200,2.258,2.197,1.892
22010210,2.380,2.319,1.953
22010220,2.380,2.319,1.953
22011000,2.380,2.319,1.953
22011010,2.258,2.014,2.136
22011020,2.258,2.014,2.136
22011100,2.258,2.014,2.136
22011110,2.441,1.343,2.258
22011120,2.441,1.343,2.258
22011200,2.441,0.916,2.380
22011210,2.380,0.916,2.380
22011220,2.380,0.916,2.380
22012000,2.014,1.099,2.380
22012010,2.014,1.099,2.380
22012020,2.014,1.099,2.380
22012100,1.648,1.709,2.258
22012110,1.648,1.709,2.258
22012120,1.648,1.709,2.258
22012200,1.770,1.831,2.441
22012210,1.770,1.831,2.441
22012220,1.770,1.831,2.441
22020000,1.892,1.770,2.380
22020010,1.892,1.770,2.380
22020020,2.258,1.648,2.197
22020100,2.258,1.648,2.197
22020110,2.258,1.648,2.197
22020120,2.686,1.587,2.136
22020200,2.686,1.587,2.136
22020210,2.686,1.587,2.136
22020220,3.357,1.465,2.075
22021000,3.357,1.465,2.075
22021010,3.357,1.465,2.075
22021020,3.296,1.587,2.014
22021100,3.296,1.587,2.014
22021110,3.296,1.587,2.014
22021120,2.319,1.465,1.953
22021200,2.319,1.465,1.953
22021210,1.526,1.160,2.319
22021220,1.526,1.160,2.319
22022000,1.526,1.160,2.319
22022010,1.404,0.793,2.380
22022020,1.404,0.793,2.380
22022100,1.404,0.793,2.380
22022110,1.709,0.488,2.747
22022120,1.709,0.488,2.747
22022200,1.709,0.488,2.747
22022210,2.075,0.183,2.930
22022221,2.075,0.183,2.930
22100001,2.014,0.305,2.869
22100011,2.014,0.305,2.869
22100021,2.014,0.305,2.869
22100101,2.197,1.221,2.686
22100111,2.197,1.221,2.686
22100121,2.197,1.221,2.686
22100201,2.319,1.892,2.502
22100211,2.319,1.892,2.502
22100221,2.319,1.892,2.502
22101001,2.747,1.892,2.319
22101011,2.747,1.892,2.319
22101021,2.747,1.892,2.380
22101101,3.052,1.526,2.380
22101111,3.052,1.526,2.380
22101121,3.113,1.221,2.502
22101201,3.113,1.221,2.502
22101211,3.113,1.221,2.502
22101221,2.441,1.160,2.686
22102001,2.441,1.160,2.686
22102011,2.441,1.160,2.686
22102021,1.404,1.404,3.174
22102101,1.404,1.404,3.174
22102111,1.404,1.404,3.174
22102121,0.244,1.526,3.418
22102201,0.244,1.526,3.418
22102211,0.244,1.526,3.723
22102221,-0.061,1.404,3.723
22110001,-0.061,1.404,3.723
22110011,-0.122,0.610,3.906
22110021,-0.122,0.610,3.906
22110101,-0.122,0.610,3.906
22110111,0.122,0.061,4.089
22110121,0.122,0.061,4.089
22110201,0.122,0.061,4.089
22110211,0.427,-0.061,4.089
22110221,0.427,-0.061,4.089
22111001,0.427,-0.061,4.089
22111011,1.038,0.854,3.662
22111021,1.038,0.854,3.662
22111101,2.014,2.075,3.357
22111111,2.014,2.075,3.357
22111121,2.014,2.075,3.357
22111201,2.197,2.747,2.930
22111211,2.197,2.747,2.930
22111221,2.197,2.747,2.930
22112001,2.380,2.563,2.808
22112011,2.380,2.563,2.808
22112021,2.380,2.563,2.808
22112101,3.235,2.075,2.625
22112111,3.235,2.075,2.625
22112121,3.235,2.075,2.747
22112201,2.991,1.587,2.747
22112211,2.991,1.587,2.747
22112221,2.625,1.038,3.418
22120001,2.625,1.038,3.418
22120011,2.625,1.038,3.418
22120021,2.136,0.916,3.723
22120101,2.136,0.916,3.723
22120111,2.136,0.916,3.723
22120121,1.770,0.793,3.845
22120201,1.770,0.793,3.845
22120211,1.770,0.793,3.845
22120221,1.587,0.977,4.028
22121001,1.587,0.977,4.028
22121011,1.587,1.465,3.784
22121021,1.282,1.465,3.784
22121101,1.282,1.465,3.784
22121111,1.160,1.892,3.601
22121121,1.160,1.892,3.601
22121201,1.160,1.892,3.601
22121211,1.282,2.441,3.601
22121221,1.282,2.441,3.601
22122001,1.282,2.441,3.601
22122011,1.587,2.563,3.479
22122021,1.587,2.563,3.479
22122101,1.587,2.563,3.540
22122111,2.014,2.380,3.540
22122121,2.014,2.380,3.540
22122201,2.197,1.709,3.601
22122211,2.197,1.709,3.601
22122221,2.197,1.709,3.601
22200001,2.258,1.221,3.540
22200011,2.258,1.221,3.540
22200021,2.258,1.221,3.540
22200101,2.380,1.282,3.418
22200111,2.380,1.282,3.418
22200121,2.380,1.282,3.418
22200201,2.258,1.648,3.113
22200211,2.258,1.648,3.113
22200221,2.258,1.648,2.930
22201001,2.319,2.136,2.930
22201011,2.319,2.136,2.930
22201021,2.258,2.747,2.747
22201101,2.258,2.747,2.747
22201111,2.258,2.747,2.747
22201121,2.136,2.808,2.747
22201201,2.136,2.808,2.747
22201211,2.136,2.808,2.747
22201221,2.197,2.625,2.930
22202001,2.197,2.625,2.930
22202011,2.197,2.625,2.930
22202021,2.319,2.319,3.296
22202101,2.319,2.319,3.296
22202111,2.319,2.319,3.296
22202121,2.319,2.014,3.784
22202201,2.319,2.014,3.784
22202211,2.441,1.770,4.028
22202221,2.441,1.770,4.028
22210001,2.441,1.770,4.028
22210011,2.502,1.587,3.906
22210021,2.502,1.587,3.906
22210101,2.502,1.587,3.906
22210111,2.380,1.587,3.967
22210121,2.380,1.587,3.967
22210201,2.380,1.587,3.967
22210211,2.441,1.587,3.784
22210221,2.441,1.587,3.784
22211001,2.441,1.587,3.784
22211011,2.441,1.587,3.784
22211021,2.441,1.587,3.784
22211101,2.441,1.831,3.906
22211111,2.441,1.831,3.906
22211121,2.441,1.831,3.906
22211201,2.441,2.075,3.601
22211211,2.441,2.075,3.601
22211221,2.441,2.075,3.601
22212001,2.625,2.136,3.540
22212011,2.625,2.136,3.540
22212021,2.625,2.136,3.540
22212101,2.747,2.075,3.418
22212111,2.747,2.075,3.418
22212121,2.747,2.075,3.296
22212201,2.686,2.075,3.296
22212211,2.686,2.075,3.296
22212221,2.625,2.258,3.113
22220001,2.625,2.258,3.113
22220011,2.625,2.258,3.113
22220021,2.380,2.258,3.235
22220101,2.380,2.258,3.235
22220111,2.380,2.258,3.235
22220121,2.502,2.197,3.235
22220201,2.502,2.197,3.235
22220211,2.502,2.197,3.235
22220221,2.686,2.014,3.235
22221001,2.686,2.014,3.235
22221011,3.052,1.831,3.357
22221021,3.052,1.831,3.357
22221101,3.052,1.831,3.357
22221111,2.747,1.648,3.540
22221121,2.747,1.648,3.540
22221201,2.747,1.648,3.540
22221211,2.686,1.404,3.845
22221221,2.686,1.404,3.845
22222001,2.686,1.404,3.845
22222011,2.380,1.526,4.028
22222021,2.380,1.526,4.028
22222101,2.380,1.526,4.028
22222111,2.014,1.770,3.967
22222121,2.014,1.770,3.967
22222201,1.831,1.648,3.845
22222211,1.831,1.648,3.845
22222221,1.831,1.648,3.845
100000001,1.648,1.465,3.723
100000011,1.648,1.465,3.723
100000021,1.648,1.465,3.723
100000101,1.831,1.404,4.089
100000111,1.831,1.404,4.089
100000121,1.831,1.404,4.089
100000201,2.197,1.465,4.272
100000211,2.197,1.465,4.272
100000221,2.197,1.465,4.272
100001001,2.197,2.014,4.272
100001011,2.197,2.014,4.272
100001021,2.136,2.502,4.333
100001101,2.136,2.502,4.333
100001111,2.136,2.502,4.333
100001121,1.709,2.869,4.150
100001201,1.709,2.869,4.150
100001211,1.709,2.869,4.150
100001221,1.282,2.869,4.333
100002001,1.282,2.869,4.333
100002011,1.282,2.869,4.333
100002021,1.160,2.380,4.333
100002101,1.160,2.380,4.333
100002111,1.160,2.380,4.517
100002121,1.099,1.648,4.517
100002201,1.099,1.648,4.517
100002211,1.038,0.916,4.333
100002221,1.038,0.916,4.333
100010001,1.038,0.916,4.333
100010011,1.282,0.916,4.028
100010021,1.282,0.916,4.028
100010101,1.282,0.916,4.028
100010111,1.587,1.465,3.540
100010121,1.587,1.465,3.540
100010201,1.587,1.465,3.540
100010211,2.014,1.892,2.930
100010221,2.014,1.892,2.930
100011001,2.014,1.892,2.930
100011011,2.502,2.136,2.930
100011021,2.502,2.136,2.930
100011101,2.502,2.014,2.747
100011111,2.502,2.014,2.747
100011121,2.502,2.014,2.747
100011201,2.319,2.014,2.747
100011211,2.319,2.014,2.747
100011221,2.319,2.014,2.747
100012001,2.258,2.075,2.747
100012011,2.258,2.075,2.747
100012021,2.258,2.075,2.747
100012101,2.319,2.075,2.808
100012111,2.319,2.075,2.808
100012121,2.319,2.136,3.174
100012201,2.014,2.136,3.174
100012211,2.014,2.136,3.174
100012221,1.831,2.197,3.113
100020001,1.831,2.197,3.113
100020011,1.831,2.197,3.113
100020021,1.709,2.014,3.174
100020101,1.709,2.014,3.174
100020111,1.709,2.014,3.174
100020121,1.892,1.770,3.235
100020201,1.892,1.770,3.235
100020211,1.892,1.770,3.235
100020221,1.953,2.014,3.052
100021001,1.953,2.014,3.052
100021011,1.953,2.197,2.930
100021021,1.770,2.197,2.930
100021101,1.770,2.197,2.930
100021111,1.648,2.380,2.625
100021121,1.648,2.380,2.625
100021201,1.648,2.380,2.625
100021211,1.892,2.258,2.991
100021221,1.892,2.258,2.991
100022001,1.892,2.258,2.991
100022011,2.014,2.014,3.113
100022021,2.014,2.014,3.113
100022101,2.014,2.014,3.113
100022111,2.014,1.648,2.930
100022121,2.014,1.648,2.930
100022201,2.075,1.709,2.869
100022211,2.075,1.709,2.869
100022221,2.075,1.709,2.869
100100001,1.892,1.892,3.052
100100011,1.892,1.892,3.052
100100021,1.892,1.892,3.052
100100101,2.014,2.197,3.052
100100111,2.014,2.197,3.052
100100121,2.014,2.197,3.052
100100201,2.197,2.380,3.174
100100211,2.197,2.380,3.174
100100221,2.197,2.441,3.296
100101001,2.197,2.441,3.296
100101011,2.197,2.441,3.296
100101021,2.075,2.319,3.235
100101101,2.075,2.319,3.235
100101111,2.075,2.319,3.235
100101121,1.709,2.258,2.991
100101201,1.709,2.258,2.991
100101211,1.709,2.258,2.991
100101221,1.587,1.953,2.869
100102001,1.587,1.953,2.869
100102011,1.587,1.953,2.869
100102021,1.709,2.197,2.747
100102101,1.709,2.197,2.747
100102111,1.709,2.380,2.869
100102121,1.709,2.380,2.869
100102201,1.709,2.380,2.869
100102211,1.648,2.686,2.869
100102221,1.648,2.686,2.869
100110001,1.648,2.686,2.869
100110011,1.892,2.747,2.686
100110021,1.892,2.747,2.686
100110101,1.892,2.747,2.686
100110111,2.136,2.625,2.563
100110121,2.136,2.625,2.563
100110201,2.136,2.625,2.563
100110211,2.502,2.441,2.625
100110221,2.502,2.441,2.625
100111001,2.747,2.136,2.808
100111011,2.747,2.136,2.808
100111021,2.747,2.136,2.808
100111101,2.930,2.136,2.808
100111111,2.930,2.136,2.808
100111121,2.930,2.136,2.808
100111201,2.808,2.136,2.808
100111211,2.808,2.136,2.808
100111221,2.808,2.136,2.808
100112001,2.563,2.075,2.747
100112011,2.563,2.075,2.747
100112021,2.563,2.075,2.747
100112101,2.563,2.075,2.991
100112111,2.563,2.075,2.991
100112121,2.075,2.014,3.113
100112201,2.075,2.014,3.113
100112211,2.075,2.014,3.113
100112221,1.953,2.197,3.174
100120001,1.953,2.197,3.174
100120011,1.953,2.197,3.174
100120021,1.892,2.319,3.235
100120101,1.892,2.319,3.235
100120111,1.892,2.319,3.235
100120121,1.465,2.319,3.296
100120201,1.465,2.319,3.296
100120211,1.465,2.319,3.113
100120221,1.526,2.258,3.113
100121001,1.526,2.258,3.113
100121011,1.587,1.953,3.113
100121021,1.587,1.953,3.113
100121101,1.587,1.953,3.113
100121111,1.343,1.465,3.113
100121121,1.343,1.465,3.113
100121201,1.343,1.465,3.113
100121211,1.160,0.916,3.540
100121221,1.160,0.916,3.540
100122001,1.160,0.916,3.540
100122011,1.099,0.549,3.723
100122021,1.099,0.549,3.723
100122101,1.099,0.549,3.723
100122111,1.648,0.610,3.723
100122121,1.648,0.610,3.723
100122201,2.686,0.000,3.906
100122211,2.686,0.000,3.906
100122221,2.686,0.000,3.906
100200001,2.808,-0.549,3.723
100200011,2.808,-0.549,3.723
100200022,2.808,-0.549,3.723
100200102,2.686,-0.366,3.662
100200112,2.686,-0.366,3.662
100200122,2.686,15.259,3.357
100200202,2.319,0.366,3.357
100200212,2.319,0.366,3.357
100200222,2.319,0.977,3.113
100201002,2.319,0.977,3.113
100201012,2.319,0.977,3.113
100201022,2.136,1.221,2.869
100201102,2.136,1.221,2.869
100201112,2.136,1.221,2.869
100201122,1.831,1.404,2.991
100201202,1.831,1.404,2.991
100201212,1.831,1.404,2.991
100201222,1.709,1.465,3.235
100202002,1.709,1.465,3.235
100202012,1.709,1.465,3.296
100202022,1.892,1.587,3.296
100202102,1.892,1.587,3.296
100202112,1.892,2.075,3.296
100202122,1.892,2.075,3.296
100202201,1.892,2.075,3.296
100202211,1.648,2.258,3.235
100202221,1.648,2.258,3.235
100210001,1.648,2.258,3.235
100210011,1.343,1.953,3.357
100210021,1.343,1.953,3.357
100210101,1.343,1.953,3.357
100210111,1.587,1.099,3.418
100210121,1.587,1.099,3.418
100210201,1.587,1.099,3.662
100210211,1.770,0.610,3.662
100210221,1.770,0.610,3.662
100211001,2.014,0.061,4.089
100211011,2.014,0.061,4.089
100211021,2.014,0.061,4.089
100211101,2.747,-1.282,4.272
100211112,2.747,-1.282,4.272
100211122,2.747,-1.282,4.272
100211202,2.258,-0.671,4.456
100211212,2.258,-0.671,4.456
100211222,2.258,-0.671,4.456
100212002,1.404,0.366,3.906
100212012,1.404,0.366,3.906
100212022,1.648,1.099,3.540
100212102,1.648,1.099,3.540
100212112,1.648,1.099,3.540
100212122,2.136,1.221,3.418
100212202,2.136,1.221,3.418
100212212,2.136,1.221,3.418
100212222,2.075,0.793,3.479
100220002,2.075,0.793,3.479
100220012,2.075,0.793,3.479
100220022,2.014,-0.061,3.967
100220102,2.014,-0.061,3.967
100220112,2.563,-0.488,4.395
100220122,2.563,-0.488,4.395
100220202,2.563,-0.488,4.395
100220220,3.296,-0.854,4.456
100221000,3.296,-0.854,4.456
100221010,3.296,-0.854,4.456
100221020,3.540,-1.404,4.761
100221100,3.540,-1.404,4.761
100221110,3.540,-1.404,5.066
100221120,3.723,-2.014,5.066
100221200,3.723,-2.014,5.066
100221210,3.418,-2.197,5.005
100221220,3.418,-2.197,5.005
100222000,3.418,-2.197,5.005
100222011,3.296,-1.831,4.272
100222021,3.296,-1.831,4.272
100222101,3.296,-1.831,4.272
100222111,2.930,-1.099,3.967
100222121,2.930,-1.099,3.967
100222201,2.502,-0.122,3.662
100222211,2.502,-0.122,3.662
100222221,2.502,-0.122,3.662
101000001,2.319,0.610,3.540
101000011,2.319,0.610,3.540
101000021,2.319,0.610,3.540
101000101,2.197,1.160,3.540
101000111,2.197,1.160,3.540
101000121,2.197,1.160,3.540
101000201,2.197,1.160,3.601
101000211,2.197,1.160,3.601
101000221,2.197,0.732,3.662
101001001,2.563,0.732,3.662
101001011,2.563,0.732,3.662
101001021,2.258,0.488,3.845
101001101,2.258,0.488,3.845
101001111,2.258,0.488,3.845
101001121,1.953,0.610,3.906
101001201,1.953,0.610,3.906
101001211,1.953,0.610,3.906
101001221,2.197,0.610,4.028
101002001,2.197,0.610,4.028
101002011,2.197,0.610,4.028
101002021,2.502,0.488,3.906
101002101,2.502,0.488,3.906
101002111,2.502,0.244,3.662
101002121,3.174,0.244,3.662
101002201,3.174,0.244,3.662
101002211,3.052,0.610,3.784
101002221,3.052,0.610,3.784
101010001,3.052,0.610,3.784
101010011,2.625,0.916,3.723
101010021,2.625,0.916,3.723
101010101,2.625,0.916,3.723
101010111,2.441,1.343,3.357
101010121,2.441,1.343,3.357
101010201,2.441,1.343,3.357
101010211,2.136,1.709,3.174
101010221,2.136,1.709,3.174
101011001,2.075,1.831,3.052
101011011,2.075,1.831,3.052
101011021,2.075,1.831,3.052
101011101,2.197,1.587,3.052
101011111,2.197,1.587,3.052
101011121,2.197,1.587,3.052
101011201,2.380,1.221,2.991
101011211,2.380,1.221,2.991
101011221,2.380,1.221,2.991
101012001,2.380,1.038,3.174
101012011,2.380,1.038,3.174
101012021,2.380,1.038,3.418
101012101,2.380,1.038,3.418
101012111,2.380,1.038,3.418
101012121,2.197,1.282,3.418
101012201,2.197,1.282,3.418
101012211,2.197,1.282,3.418
101012221,2.136,1.404,3.357
101020001,2.136,1.404,3.357
101020011,2.136,1.404,3.357
101020021,2.014,1.343,3.540
101020101,2.014,1.343,3.540
101020111,2.014,1.343,3.540
101020121,2.075,1.282,3.540
101020201,2.075,1.282,3.540
101020211,2.075,1.282,3.601
101020221,2.014,1.099,3.601
101021001,2.014,1.099,3.601
101021011,1.831,1.160,3.540
101021021,1.831,1.160,3.540
101021101,1.831,1.160,3.540
101021111,1.831,1.343,3.662
101021121,1.831,1.343,3.662
101021201,1.831,1.343,3.662
101021211,1.831,1.709,3.784
101021221,1.831,1.709,3.784
101022001,1.831,1.709,3.784
101022011,1.770,1.831,3.723
101022021,1.770,1.831,3.723
101022101,1.770,1.587,3.906
101022111,1.587,1.587,3.906
101022121,1.587,1.587,3.906
101022201,1.404,1.770,3.723
101022211,1.404,1.770,3.723
101022221,1.404,1.770,3.723
101100001,1.343,2.136,3.662
101100011,1.343,2.136,3.662
101100021,1.343,2.136,3.662
101100101,1.282,2.197,3.784
101100111,1.282,2.197,3.784
101100121,1.282,2.197,3.784
101100201,1.282,1.648,3.784
101100211,1.282,1.648,3.784
101100221,1.282,1.099,3.784
101101001,1.404,1.099,3.784
101101011,1.404,1.099,3.784
101101021,1.648,0.793,3.723
101101101,1.648,0.793,3.723
101101111,1.648,0.793,3.723
101101121,1.953,0.916,3.601
101101201,1.953,0.916,3.601
101101211,1.953,0.916,3.601
101101221,2.075,1.465,3.296
101102001,2.075,1.465,3.296
101102011,2.075,1.465,3.296
101102021,2.258,1.953,2.686
101102101,2.258,1.953,2.686
101102111,2.197,2.136,2.502
101102121,2.197,2.136,2.502
101102201,2.197,2.136,2.502
101102211,2.258,2.197,2.258
101102221,2.258,2.197,2.258
101110001,2.258,2.197,2.258
101110011,2.075,2.136,2.014
101110021,2.075,2.136,2.014
101110101,2.075,2.136,2.014
101110111,1.831,1.892,1.953
101110121,1.831,1.892,1.953
101110201,1.831,1.892,1.953
101110211,1.648,1.404,2.136
101110221,1.648,1.404,2.136
101111001,1.404,1.099,2.258
101111011,1.404,1.099,2.258
101111021,1.404,1.099,2.258
101111101,1.404,0.916,2.502
101111111,1.404,0.916,2.502
101111121,1.404,0.916,2.502
101111201,1.648,1.038,2.869
101111211,1.648,1.038,2.869
101111221,1.648,1.038,2.869
101112001,1.953,1.465,2.930
101112011,1.953,1.465,2.930
101112021,1.953,1.465,2.869
101112101,2.136,1.892,2.869
101112111,2.136,1.892,2.869
101112121,1.953,2.075,3.052
101112201,1.953,2.075,3.052
101112211,1.953,2.075,3.052
101112221,1.648,2.258,3.052
101120001,1.648,2.258,3.052
101120011,1.648,2.258,3.052
101120021,1.526,2.380,3.235
101120101,1.526,2.380,3.235
101120111,1.526,2.380,3.235
101120121,1.343,2.136,3.296
101120201,1.343,2.136,3.296
101120211,1.343,2.136,3.296
101120221,1.038,2.075,3.296
101121001,1.038,2.075,3.296
101121011,0.854,2.075,3.235
101121021,0.854,2.075,3.235
101121101,0.854,2.075,3.235
101121111,1.099,2.014,3.113
101121121,1.099,2.014,3.113
101121201,1.099,2.014,3.113
101121211,1.526,2.014,3.052
101121221,1.526,2.014,3.052
101122001,1.526,2.014,3.052
101122011,1.648,1.831,3.052
101122021,1.648,1.831,3.052
101122101,1.648,2.075,2.747
101122111,1.770,2.075,2.747
101122121,1.770,2.075,2.747
101122201,1.770,2.075,2.502
101122211,1.770,2.075,2.502
101122221,1.770,2.075,2.502
101200001,1.892,1.831,2.380
101200011,1.892,1.831,2.380
101200021,1.892,1.831,2.380
101200101,1.831,1.099,2.502
101200111,1.831,1.099,2.502
101200121,1.831,1.099,2.502
101200201,1.770,0.549,2.686
101200211,1.770,0.549,2.686
101200221,1.770,0.305,2.930
101201001,1.892,0.305,2.930
101201011,1.892,0.305,2.930
101201021,1.953,0.427,3.113
101201101,1.953,0.427,3.113
101201111,1.953,0.427,3.113
101201121,1.831,0.977,3.052
101201201,1.831,0.977,3.052
101201211,1.831,0.977,3.052
101201221,1.892,1.831,2.625
101202001,1.892,1.831,2.625
101202011,1.892,1.831,2.625
101202021,1.648,2.441,2.747
101202101,1.648,2.441,2.747
101202111,1.343,2.258,2.808
101202121,1.343,2.258,2.808
101202201,1.343,2.258,2.808
101202211,0.916,1.587,2.991
101202221,0.916,1.587,2.991
101210001,0.916,1.587,2.991
101210011,0.671,1.221,3.296
101210021,0.671,1.221,3.296
101210101,0.671,1.221,3.296
101210111,1.099,1.221,3.174
101210121,1.099,1.221,3.174
101210201,1.099,1.221,2.625
101210211,1.709,1.526,2.625
101210221,1.709,1.526,2.625
101211001,2.197,1.892,2.197
101211011,2.197,1.892,2.197
101211021,2.197,1.892,2.197
101211101,2.686,2.319,2.014
101211111,2.686,2.319,2.014
101211121,2.686,2.319,2.014
101211201,3.052,2.747,1.770
101211211,3.052,2.747,1.770
101211221,3.052,2.747,1.770
101212001,3.235,2.563,1.831
101212011,3.235,2.563,1.831
101212021,3.235,2.563,2.258
101212101,2.869,2.075,2.258
101212111,2.869,2.075,2.258
101212121,2.197,1.587,2.808
101212201,2.197,1.587,2.808
101212211,2.197,1.587,2.808
101212221,1.526,1.038,2.991
101220001,1.526,1.038,2.991
101220011,1.526,1.038,2.991
101220021,1.343,0.854,3.235
101220101,1.343,0.854,3.235
101220111,1.343,0.854,3.235
101220121,1.221,1.038,3.235
101220201,1.221,1.038,3.235
101220211,1.221,1.526,2.869
101220221,0.854,1.526,2.869
101221001,0.854,1.526,2.869
101221011,0.732,2.075,2.441
101221021,0.732,2.075,2.441
101221101,0.732,2.075,2.441
101221111,0.732,2.625,2.014
101221121,0.732,2.625,2.014
101221201,0.732,2.625,2.014
101221211,0.732,2.869,2.014
101221221,0.732,2.869,2.014
101222001,0.732,2.869,2.014
101222011,0.671,2.625,2.136
101222021,0.671,2.625,2.136
101222101,0.916,2.136,2.502
101222111,0.916,2.136,2.502
101222121,0.916,2.136,2.502
101222201,0.977,1.587,2.808
101222211,0.977,1.587,2.808
101222221,0.977,1.587,2.808
102000001,0.977,1.465,2.930
102000011,0.977,1.465,2.930
102000021,0.977,1.465,2.930
102000101,0.732,1.282,2.808
102000111,0.732,1.282,2.808
102000121,0.732,1.282,2.808
102000201,0.549,1.465,2.808
102000211,0.549,1.465,2.808
102000221,0.732,1.709,2.563
102001001,0.732,1.709,2.563
102001011,0.732,1.709,2.563
102001021,0.671,2.136,2.380
102001101,0.671,2.136,2.380
102001111,0.671,2.136,2.380
102001121,0.977,2.563,2.258
102001201,0.977,2.563,2.258
102001211,0.977,2.563,2.258
102001221,1.038,2.747,2.319
102002001,1.038,2.747,2.319
102002011,1.038,2.747,2.563
102002021,0.916,2.258,2.563
102002101,0.916,2.258,2.563
102002111,0.854,1.953,3.052
102002121,0.854,1.953,3.052
102002201,0.854,1.953,3.052
102002211,0.916,1.709,3.296
102002221,0.916,1.709,3.296
102010001,0.916,1.709,3.296
102010011,1.038,1.404,3.601
102010021,1.038,1.404,3.601
102010101,1.038,1.404,3.601
102010111,1.038,1.038,3.845
102010121,1.038,1.038,3.845
102010201,1.038,1.038,4.150
102010211,0.793,1.038,4.150
102010221,0.793,1.038,4.150
102011001,0.793,1.282,4.028
102011011,0.793,1.282,4.028
102011021,0.793,1.282,4.028
102011101,0.977,1.953,3.540
102011111,0.977,1.953,3.540
102011121,0.977,1.953,3.540
102011201,1.465,2.441,3.235
102011211,1.465,2.441,3.235
102011221,1.465,2.441,3.235
102012001,1.953,2.563,2.991
102012011,1.953,2.563,2.991
102012021,1.953,2.625,3.235
102012101,2.014,2.625,3.235
102012111,2.014,2.625,3.235
102012121,1.526,2.808,3.601
102012201,1.526,2.808,3.601
102012211,1.526,2.808,3.601
102012221,1.282,2.747,3.540
102020001,1.282,2.747,3.540
102020011,1.282,2.747,3.540
102020021,1.526,2.563,3.662
102020101,1.526,2.563,3.662
102020111,1.526,2.563,3.662
102020121,1.831,2.136,4.028
102020201,1.831,2.136,4.028
102020211,1.831,1.831,4.395
102020221,1.465,1.831,4.395
102021001,1.465,1.831,4.395
102021011,1.465,1.709,4.578
102021021,1.465,1.709,4.578
102021101,1.465,1.709,4.578
102021111,1.709,2.014,4.517
102021121,1.709,2.014,4.517
102021201,1.709,2.014,4.517
102021211,1.892,2.625,4.517
102021221,1.892,2.625,4.517
102022001,1.892,2.625,4.517
102022011,2.625,2.808,4.150
102022021,2.625,2.808,4.150
102022101,2.808,2.869,4.150
102022111,2.808,2.869,4.150
102022121,2.808,2.869,4.150
102022201,2.136,2.991,4.333
102022211,2.136,2.991,4.333
102022221,2.136,2.991,4.333
102100001,1.648,2.930,4.333
102100011,1.648,2.930,4.333
102100021,1.648,2.930,4.333
102100101,1.831,2.991,4.150
102100111,1.831,2.991,4.150
102100121,1.831,2.991,4.150
102100201,2.319,2.991,3.906
102100211,2.319,2.991,3.906
102100221,2.686,2.747,3.967
102101001,2.686,2.747,3.967
102101011,2.686,2.747,3.967
102101021,2.625,2.686,3.967
102101101,2.625,2.686,3.967
102101111,2.625,2.686,3.967
102101121,2.441,2.869,3.784
102101201,2.441,2.869,3.784
102101211,2.441,2.869,3.784
102101221,2.441,2.869,3.601
102102001,2.441,2.869,3.601
102102011,2.441,2.869,3.479
102102021,2.502,2.991,3.479
102102101,2.502,2.991,3.479
102102111,2.380,2.808,3.540
102102121,2.380,2.808,3.540
102102201,2.380,2.808,3.540
102102211,2.075,2.441,3.540
102102221,2.075,2.441,3.540
102110001,2.075,2.441,3.540
102110011,1.953,2.258,3.357
102110021,1.953,2.258,3.357
102110101,1.953,2.258,3.357
102110111,2.380,2.258,2.930
102110121,2.380,2.258,2.930
102110201,2.380,2.258,2.808
102110211,2.808,2.625,2.808
102110221,2.808,2.625,2.808
102111001,2.930,2.930,2.808
102111011,2.930,2.930,2.808
102111021,2.930,2.930,2.808
102111101,2.502,3.052,2.686
102111111,2.502,3.052,2.686
102111121,2.502,3.052,2.686
102111201,2.136,3.174,2.686
102111211,2.136,3.174,2.686
102111221,2.136,3.174,2.686
102112001,2.136,2.869,2.441
102112011,2.136,2.869,2.441
102112021,2.136,2.930,2.197
102112101,2.075,2.930,2.197
102112111,2.075,2.930,2.197
102112121,2.319,2.930,2.258
102112201,2.319,2.930,2.258
102112211,2.319,2.930,2.258
102112221,2.380,3.052,2.136
102120001,2.380,3.052,2.136
102120011,2.380,3.052,2.136
102120021,2.075,3.113,1.892
102120101,2.075,3.113,1.892
102120111,2.075,3.113,1.892
102120121,1.953,3.296,1.587
102120201,1.953,3.296,1.587
102120211,1.953,3.662,1.709
102120221,1.953,3.662,1.709
102121001,1.953,3.662,1.709
102121011,1.587,3.601,2.136
102121021,1.587,3.601,2.136
102121101,1.587,3.601,2.136
102121111,1.221,2.991,2.747
102121121,1.221,2.991,2.747
102121201,1.221,2.991,2.747
102121211,1.160,1.892,3.052
102121221,1.160,1.892,3.052
102122001,1.160,1.892,3.052
102122011,0.977,1.099,3.357
102122021,0.977,1.099,3.357
102122101,0.671,0.793,3.418
102122111,0.671,0.793,3.418
102122121,0.671,0.793,3.418
102122201,0.488,0.916,3.174
102122211,0.488,0.916,3.174
102122221,0.488,0.916,3.174
102200001,0.732,1.099,2.625
102200011,0.732,1.099,2.625
102200021,0.732,1.099,2.625
102200101,0.977,1.465,2.075
102200111,0.977,1.465,2.075
102200121,0.977,1.465,2.014
102200201,1.160,1.648,2.014
102200211,1.160,1.648,2.014
102200221,1.221,1.709,2.136
102201001,1.221,1.709,2.136
102201011,1.221,1.709,2.136
102201021,1.404,1.282,2.380
102201101,1.404,1.282,2.380
102201111,1.404,1.282,2.380
102201121,1.526,0.732,2.808
102201201,1.526,0.732,2.808
102201211,1.526,0.732,2.808
102201221,1.465,0.122,3.357
102202001,1.465,0.122,3.357
102202011,1.465,-15.503,3.784
102202021,1.099,-0.061,3.784
102202101,1.099,-0.061,3.784
102202111,1.099,-0.061,3.967
102202122,1.099,-0.061,3.967
102202202,1.099,-0.061,3.967
102202212,1.038,0.122,4.089
102202222,1.038,0.122,4.089
102210002,1.038,0.122,4.089
102210012,1.160,0.671,3.723
102210022,1.160,0.671,3.723
102210102,1.160,1.221,3.357
102210112,0.977,1.221,3.357
102210122,0.977,1.221,3.357
102210202,1.282,1.526,3.174
102210212,1.282,1.526,3.174
102210222,1.282,1.526,3.174
102211002,1.587,1.892,3.052
102211012,1.587,1.892,3.052
102211022,1.587,1.892,3.052
102211102,1.831,2.075,2.991
102211112,1.831,2.075,2.991
102211122,1.831,2.075,2.991
102211202,1.953,2.014,3.174
102211212,1.953,2.014,3.174
102211222,1.953,1.953,3.418
102212002,1.892,1.953,3.418
102212012,1.892,1.953,3.418
102212022,1.526,1.953,3.662
102212102,1.526,1.953,3.662
102212112,1.526,1.953,3.662
102212122,1.343,1.953,3.845
102212202,1.343,1.953,3.845
102212212,1.343,1.953,3.845
102212222,1.587,1.587,3.906
102220002,1.587,1.587,3.906
102220012,1.587,1.587,3.906
102220022,1.953,1.343,4.028
102220102,1.953,1.343,4.028
102220112,2.014,1.282,4.211
102220122,2.014,1.282,4.211
102220202,2.014,1.282,4.211
102220212,2.197,1.953,4.395
102220222,2.197,1.953,4.395
102221002,2.197,1.953,4.395
102221012,2.563,2.380,4.272
102221022,2.563,2.380,4.272
102221102,2.563,2.380,4.272
102221112,2.686,2.625,3.906
102221122,2.686,2.625,3.906
102221202,2.686,2.625,3.601
102221212,2.625,2.319,3.601
102221222,2.625,2.319,3.601
102222002,2.075,1.038,3.540
102222012,2.075,1.038,3.540
102222022,2.075,1.038,3.540
102222102,1.587,-0.183,4.089
102222112,1.587,-0.183,4.089
102222122,1.587,-0.183,4.089
102222202,1.343,-0.671,4.211
102222212,1.343,-0.671,4.211
102222222,1.343,-0.671,4.211
110000010,1.648,-0.122,3.906
110000020,1.648,-0.122,3.906
110000100,2.075,1.160,3.113
110000110,2.075,1.160,3.113
110000120,2.075,1.160,3.113
110000200,2.136,2.197,2.930
110000210,2.136,2.197,2.930
110000220,2.136,2.197,2.930
110001000,2.563,2.563,2.808
110001010,2.563,2.563,2.808
110001020,2.563,2.563,2.808
110001100,2.930,2.380,2.625
110001110,2.930,2.380,2.625
110001120,2.930,1.953,2.991
110001200,2.991,1.953,2.991
110001210,2.991,1.953,2.991
110001220,2.930,1.343,3.540
110002000,2.930,1.343,3.540
110002010,2.930,1.343,3.540
110002020,2.441,1.038,4.028
110002100,2.441,1.038,4.028
110002110,2.441,1.038,4.028
110002120,1.587,0.916,4.028
110002200,1.587,0.916,4.028
110002210,1.587,0.916,4.028
110002220,0.977,0.977,4.089
110010000,0.977,0.977,4.089
110010010,0.977,1.099,3.906
110010020,0.488,1.099,3.906
110010100,0.488,1.099,3.906
110010110,0.793,1.099,3.662
110010120,0.793,1.099,3.662
110010200,0.793,1.099,3.662
110010210,1.038,1.160,3.418
110010220,1.038,1.160,3.418
110011000,1.038,1.160,3.418
110011010,1.343,1.282,3.174
110011020,1.343,1.282,3.174
110011100,1.343,1.282,3.174
110011110,1.465,1.221,2.808
110011120,1.465,1.221,2.808
110011200,1.587,1.526,2.625
110011210,1.587,1.526,2.625
110011220,1.587,1.526,2.625
110012000,1.648,1.709,2.747
110012010,1.648,1.709,2.747
110012020,1.648,1.709,2.747
110012100,1.770,1.587,2.808
110012110,1.770,1.587,2.808
110012120,1.770,1.587,2.808
110012200,1.648,1.526,2.930
110012210,1.648,1.526,2.930
110012220,1.648,1.526,2.930
110020000,1.038,1.831,3.052
110020010,1.038,1.831,3.052
110020020,0.366,2.197,3.174
110020100,0.366,2.197,3.174
110020110,0.366,2.197,3.174
110020120,0.183,2.197,3.052
110020200,0.183,2.197,3.052
110020210,0.183,2.197,3.052
110020220,0.549,2.075,2.991
110021000,0.549,2.075,2.991
110021010,0.549,2.075,2.991
110021012,0.854,1.648,3.418
110021022,0.854,1.648,3.418
110021102,0.854,1.648,3.418
110021112,1.099,1.343,3.784
110021200,1.099,1.343,3.784
110021202,1.221,1.526,3.723
110021212,1.221,1.526,3.723
110021222,1.221,1.526,3.723
110022002,1.221,1.892,3.723
110022012,1.221,1.892,3.723
110022022,1.221,1.892,3.723
110022102,1.038,2.136,3.540
110022112,1.038,2.136,3.540
110022200,1.038,2.136,3.540
110022202,0.732,2.319,3.601
110022212,0.732,2.319,3.601
110022222,0.732,2.319,3.601
110100002,0.366,2.075,3.662
110100012,0.366,2.075,3.662
110100100,0.061,1.587,3.906
110100102,0.061,1.587,3.906
110100112,0.061,1.587,3.906
110100122,0.305,1.343,3.784
110100202,0.305,1.343,3.784
110100212,0.305,1.343,3.784
110101000,0.732,1.709,3.418
110101002,0.732,1.709,3.418
110101012,0.732,1.709,3.418
110101022,1.099,2.319,3.113
110101110,1.099,2.319,3.113
110101112,1.099,2.319,2.808
110101122,1.526,2.625,2.808
110101202,1.526,2.625,2.808
110101212,1.953,2.808,2.563
110101222,1.953,2.808,2.563
110102002,1.953,2.808,2.563
110102012,2.258,2.930,2.563
110102022,2.258,2.930,2.563
110102110,2.258,2.930,2.563
110102112,2.197,3.052,2.502
110102122,2.197,3.052,2.502
110102202,2.197,3.052,2.502
110102212,2.075,2.930,2.441
110102222,2.075,2.930,2.441
110110002,2.075,2.930,2.747
110110012,1.831,2.502,2.747
110110100,1.831,2.502,2.747
110110102,1.892,2.075,2.686
110110112,1.892,2.075,2.686
110110122,1.892,2.075,2.686
110110202,1.892,2.136,2.686
110110220,1.892,2.136,2.686
110111000,1.892,2.136,2.686
110111010,1.953,2.136,2.563
110111012,1.953,2.136,2.563
110111022,1.953,2.136,2.563
110111102,2.075,2.014,2.502
110111112,2.075,2.014,2.502
110111200,2.319,1.831,2.686
110111202,2.319,1.831,2.686
110111212,2.319,1.831,2.686
110111222,2.502,1.709,2.686
110112002,2.502,1.709,2.686
110112012,2.502,1.709,2.686
110112022,2.808,1.709,2.686
110112110,2.808,1.709,2.686
110112120,2.808,1.709,2.686
110112200,2.869,1.709,2.869
110112210,2.869,1.709,2.869
110112220,2.869,1.709,2.869
110120000,2.502,2.319,3.235
110120010,2.502,2.319,3.235
110120020,2.197,2.808,3.235
110120100,2.197,2.808,3.235
110120110,2.197,2.808,3.235
110120120,2.075,3.235,3.113
110120200,2.075,3.235,3.113
110120210,2.075,3.235,3.113
110120220,1.709,3.540,2.930
110121000,1.709,3.540,2.930
110121010,1.709,3.540,2.930
110121020,1.526,3.418,2.869
110121100,1.526,3.418,2.869
110121110,1.526,3.418,2.869
110121120,1.465,2.869,2.869
110121200,1.465,2.869,2.869
110121210,1.587,2.441,2.563
110121220,1.587,2.441,2.563
110122000,1.587,2.441,2.563
110122010,1.831,2.197,2.441
110122020,1.831,2.197,2.441
110122100,1.831,2.197,2.441
110122110,1.953,2.075,2.441
110122120,1.953,2.075,2.441
110122200,1.953,2.075,2.441
110122210,2.014,1.831,2.258
110122220,2.014,1.831,2.258
110200000,2.014,1.831,2.502
110200010,2.197,1.404,2.502
110200020,2.197,1.404,2.502
110200100,2.319,1.221,2.625
110200110,2.319,1.221,2.625
110200120,2.319,1.221,2.625
110200200,2.808,1.404,2.686
110200210,2.808,1.404,2.686
110200220,2.808,1.404,2.686
110201000,2.625,1.648,2.808
110201010,2.625,1.648,2.808
110201020,2.625,1.648,2.808
110201100,2.502,1.770,2.808
110201110,2.502,1.770,2.808
110201120,2.502,1.465,2.808
110201200,2.441,1.465,2.808
110201210,2.441,1.465,2.808
110201220,2.075,1.343,3.113
110202000,2.075,1.343,3.113
110202010,2.075,1.343,3.113
110202020,1.831,1.282,3.601
110202100,1.831,1.282,3.601
110202110,1.831,1.282,3.601
110202120,1.709,1.404,3.845
110202200,1.709,1.404,3.845
110202210,1.709,1.404,3.845
110202220,1.648,1.526,3.784
110210000,1.648,1.526,3.784
110210010,1.465,1.587,3.723
110210020,1.465,1.587,3.723
110210100,1.465,1.587,3.723
110210110,1.343,1.648,3.784
110210120,1.343,1.648,3.784
110210200,1.343,1.648,3.784
110210210,1.343,1.526,3.601
110210220,1.343,1.526,3.601
110211000,1.343,1.526,3.601
110211010,1.648,1.465,3.540
110211020,1.648,1.465,3.540
110211100,1.648,1.465,3.540
110211110,1.953,1.648,3.540
110211120,1.953,1.648,3.540
110211200,2.136,1.648,3.418
110211210,2.136,1.648,3.418
110211220,2.136,1.648,3.418
110212000,2.258,1.526,3.052
110212010,2.258,1.526,3.052
110212020,2.258,1.526,3.052
110212100,2.014,1.587,2.869
110212110,2.014,1.587,2.869
110212120,2.014,1.587,2.869
110212200,1.953,1.831,2.747
110212210,1.953,1.831,2.747
110212220,1.953,1.831,2.502
110220000,1.770,1.892,2.502
110220010,1.770,1.892,2.502
110220020,1.709,1.648,2.747
110220100,1.709,1.648,2.747
110220110,1.709,1.648,2.747
110220120,1.709,1.404,2.869
110220200,1.709,1.404,2.869
110220210,1.709,1.404,2.869
110220220,1.526,1.221,2.991
110221000,1.526,1.221,2.991
110221010,1.526,1.221,2.991
110221020,1.648,1.282,3.113
110221100,1.648,1.282,3.113
110221110,1.648,1.282,3.235
110221120,1.648,1.526,3.235
110221200,1.648,1.526,3.235
110221210,1.526,1.587,3.052
110221220,1.526,1.587,3.052
110222000,1.526,1.587,3.052
110222010,1.282,1.892,2.930
110222020,1.282,1.892,2.930
110222100,1.282,1.892,2.930
110222110,1.160,2.075,3.052
110222120,1.160,2.075,3.052
110222200,1.160,2.075,3.052
110222210,1.221,2.197,2.869
110222220,1.221,2.197,2.869
111000000,1.221,2.075,2.869
111000010,1.160,2.075,2.869
111000020,1.160,2.075,2.869
111000100,1.343,2.075,2.808
111000110,1.343,2.075,2.808
111000120,1.343,2.075,2.808
111000200,1.343,1.953,2.808
111000210,1.343,1.953,2.808
111000220,1.343,1.953,2.808
111001000,1.770,1.709,2.808
111001010,1.770,1.709,2.808
111001020,1.770,1.709,2.808
111001100,1.953,1.648,2.563
111001110,1.953,1.648,2.563
111001120,1.953,1.953,2.319
111001200,2.075,1.953,2.319
111001210,2.075,1.953,2.319
111001220,2.197,2.197,2.197
111002000,2.197,2.197,2.197
111002010,2.197,2.197,2.197
111002020,2.014,2.075,1.892
111002100,2.014,2.075,1.892
111002110,2.014,2.075,1.892
111002120,1.892,2.441,2.136
111002200,1.892,2.441,2.136
111002210,1.892,2.441,2.136
111002220,1.892,1.648,2.502
111010000,1.892,1.648,2.502
111010010,1.770,0.916,2.991
111010020,1.770,0.916,2.991
111010100,1.770,0.916,2.991
111010110,1.587,0.671,3.296
111010120,1.587,0.671,3.296
111010200,1.587,0.671,3.296
111010210,1.282,0.977,3.052
111010220,1.282,0.977,3.052
111011000,1.282,0.977,3.052
111011010,1.038,1.770,2.991
111011020,1.038,1.770,2.991
111011100,1.038,1.770,2.991
111011110,0.977,2.258,2.747
111011120,0.977,2.258,2.747
111011200,0.732,2.258,2.747
111011210,0.732,2.258,2.747
111011220,0.732,2.258,2.747
111012000,0.549,1.709,3.052
111012010,0.549,1.709,3.052
111012020,0.549,1.709,3.052
111012100,0.671,0.916,3.418
111012110,0.671,0.916,3.418
111012120,0.671,0.916,3.418
111012122,1.038,0.671,3.540
111012202,1.038,0.671,3.540
111012212,1.038,0.671,3.540
111012222,1.343,1.221,3.418
111020002,1.343,1.221,3.418
111020012,1.465,1.953,3.113
111020100,1.465,1.953,3.113
111020102,1.465,1.953,3.113
111020120,1.221,2.197,2.991
111020122,1.221,2.197,2.991
111020202,1.221,2.197,2.991
111020212,1.465,2.075,3.052
111020222,1.465,2.075,3.052
111021002,1.465,2.075,3.052
111021012,1.831,1.465,3.357
111021022,1.831,1.465,3.357
111021102,1.831,1.465,3.906
111021120,2.136,0.610,3.906
111021122,2.136,0.610,3.906
111021202,2.075,0.061,4.150
111021220,2.075,0.061,4.150
111022000,2.075,0.061,4.150
111022002,1.831,0.061,4.395
111022012,1.831,0.061,4.395
111022100,1.831,0.061,4.395
111022102,1.648,0.061,4.517
111022120,1.648,0.061,4.517
111022200,1.648,0.061,4.517
111022210,1.465,0.183,4.089
111022220,1.465,0.183,4.089
111022222,1.465,0.854,3.845
111100002,1.160,0.854,3.845
111100020,1.160,0.854,3.845
111100022,0.916,1.526,3.662
111100102,0.916,1.526,3.662
111100112,0.916,1.526,3.662
111100122,0.916,1.892,3.174
111100202,0.916,1.892,3.174
111100220,0.916,1.892,3.174
111101000,1.282,2.014,2.625
111101002,1.282,2.014,2.625
111101012,1.282,2.014,2.625
111101022,1.465,2.197,2.502
111101102,1.465,2.197,2.502
111101112,1.465,2.197,2.258
111101122,1.648,2.136,2.258
111101202,1.648,2.136,2.258
111101212,1.831,1.709,2.197
111101222,1.831,1.709,2.197
111102002,1.831,1.709,2.197
111102012,2.014,1.404,1.953
111102022,2.014,1.404,1.953
111102102,2.014,1.404,1.953
111102112,2.258,1.343,2.014
111102122,2.258,1.343,2.014
111102202,2.258,1.343,2.014
111102212,2.136,1.526,2.380
111102222,2.136,1.526,2.380
111110002,2.136,1.892,2.625
111110012,1.831,1.892,2.625
111110022,1.831,1.892,2.625
111110102,1.892,1.648,2.625
111110112,1.892,1.648,2.625
111110122,1.892,1.648,2.625
111110202,2.075,1.648,2.808
111110212,2.075,1.648,2.808
111110222,2.075,1.648,2.808
111111002,2.075,1.526,3.235
111111012,2.075,1.526,3.235
111111022,2.075,1.526,3.235
111111102,2.075,1.587,3.418
111111112,2.075,1.587,3.418
111111122,2.075,1.892,3.296
111111202,2.075,1.892,3.296
111111212,2.075,1.892,3.296
111111222,1.709,2.075,2.991
111112002,1.709,2.075,2.991
111112012,1.709,2.075,2.991
111112022,1.587,1.892,2.991
111112102,1.587,1.892,2.991
111112112,1.587,1.892,2.991
111112122,1.648,1.343,3.113
111112202,1.648,1.343,3.113
111112212,1.648,1.343,3.113
111112222,1.709,0.427,3.052
111120002,1.709,0.427,3.052
111120012,1.709,0.366,2.747
111120022,2.197,0.366,2.747
111120102,2.197,0.366,2.747
111120112,2.197,0.732,2.808
111120122,2.197,0.732,2.808
111120202,2.197,0.732,2.808
111120212,2.014,1.160,3.113
111120222,2.014,1.160,3.113
111121002,2.014,1.160,3.113
111121012,1.831,1.526,3.357
111121022,1.831,1.526,3.357
111121102,1.831,1.526,3.723
111121112,2.075,1.587,3.723
111121122,2.075,1.587,3.723
111121202,2.319,1.404,4.089
111121212,2.319,1.404,4.089
111121222,2.319,1.404,4.089
111122002,2.563,1.465,4.028
111122012,2.563,1.465,4.028
111122022,2.563,1.465,4.028
111122102,2.441,2.014,3.723
111122112,2.441,2.014,3.723
111122122,2.441,2.014,3.723
111122202,2.197,2.258,3.540
111122212,2.197,2.258,3.540
111122222,2.197,2.258,3.357
111200002,1.892,2.747,3.357
111200012,1.892,2.747,3.357
111200022,1.770,2.625,3.479
111200102,1.770,2.625,3.479
111200112,1.770,2.625,3.479
111200122,1.892,2.197,3.479
111200202,1.892,2.197,3.479
111200212,1.892,2.197,3.479
111200222,1.831,2.075,3.784
111201002,1.831,2.075,3.784
111201012,1.831,2.075,3.784
111201022,1.587,1.953,3.784
111201102,1.587,1.953,3.784
111201112,1.587,1.953,4.089
111201122,1.526,1.953,4.089
111201202,1.526,1.953,4.089
111201212,1.526,1.709,4.456
111201222,1.526,1.709,4.456
111202002,1.526,1.709,4.456
111202012,1.709,1.404,4.700
111202022,1.709,1.404,4.700
111202102,1.709,1.404,4.700
111202112,1.953,1.160,4.700
111202122,1.953,1.160,4.700
111202202,1.953,1.160,4.700
111202212,2.380,1.404,4.211
111202222,2.380,1.404,4.211
111210002,2.380,2.075,3.845
111210012,2.502,2.075,3.845
111210022,2.502,2.075,3.845
111210102,2.197,2.747,3.357
111210112,2.197,2.747,3.357
111210122,2.197,2.747,3.357
111210202,2.136,3.174,2.930
111210212,2.136,3.174,2.930
111210222,2.136,3.174,2.930
111211002,2.014,3.174,2.686
111211012,2.014,3.174,2.686
111211022,2.014,3.174,2.686
111211102,1.953,2.991,2.747
111211112,1.953,2.991,2.747
111211122,1.953,2.563,3.174
111211202,1.770,2.563,3.174
111211212,1.770,2.563,3.174
111211222,1.282,2.380,3.418
111212002,1.282,2.380,3.418
111212012,1.282,2.380,3.418
111212022,1.221,2.014,3.601
111212102,1.221,2.014,3.601
111212112,1.221,2.014,3.601
111212122,1.221,1.831,3.906
111212202,1.221,1.831,3.906
111212212,1.221,1.831,3.906
111212222,1.404,1.709,3.784
111220002,1.404,1.709,3.784
111220012,1.404,1.770,3.723
111220022,1.648,1.770,3.723
111220102,1.648,1.770,3.723
111220112,1.953,2.197,3.357
111220122,1.953,2.197,3.357
111220202,1.953,2.197,3.357
111220212,2.258,2.502,2.869
111220222,2.258,2.502,2.869
111221002,2.258,2.502,2.869
111221012,2.136,2.441,2.441
111221022,2.136,2.441,2.441
111221102,2.136,2.441,2.441
111221112,2.136,2.319,2.380
111221122,2.136,2.319,2.380
111221202,2.258,2.014,2.502
111221212,2.258,2.014,2.502
111221222,2.258,2.014,2.502
111222002,2.258,1.526,2.869
111222012,2.258,1.526,2.869
111222022,2.258,1.526,2.869
111222102,2.075,1.465,3.174
111222112,2.075,1.465,3.174
111222122,2.075,1.465,3.174
111222202,1.892,1.709,3.296
111222212,1.892,1.709,3.296
111222222,1.892,1.709,3.174
112000002,1.648,2.197,3.174
112000012,1.648,2.197,3.174
112000022,1.587,2.808,3.235
112000102,1.587,2.808,3.235
112000112,1.587,2.808,3.235
112000122,1.526,3.540,3.174
112000202,1.526,3.540,3.174
112000212,1.526,3.540,3.174
112000222,1.221,3.601,2.808
112001002,1.221,3.601,2.808
112001012,1.221,3.601,2.808
112001022,0.977,3.235,2.869
112001102,0.977,3.235,2.869
112001112,0.977,3.235,2.686
112001122,1.160,2.441,2.686
112001202,1.160,2.441,2.686
112001212,1.160,1.892,2.563
112001222,1.160,1.892,2.563
112002002,1.160,1.892,2.563
112002012,1.648,1.404,2.380
112002022,1.648,1.404,2.380
112002102,1.648,1.404,2.380
112002112,1.892,1.038,2.319
112002122,1.892,1.038,2.319
112002202,1.892,1.038,2.319
112002212,2.014,1.160,2.197
112002222,2.014,1.160,2.197
112010002,2.014,1.404,2.014
112010012,2.075,1.404,2.014
112010022,2.075,1.404,2.014
112010102,1.587,1.831,2.075
112010112,1.587,1.831,2.075
112010122,1.587,1.831,2.075
112010202,0.854,2.197,2.441
112010212,0.854,2.197,2.441
112010222,0.854,2.197,2.441
112011002,0.610,1.892,2.808
112011012,0.610,1.892,2.808
112011022,0.610,1.892,2.808
112011102,0.610,1.282,3.540
112011112,0.610,1.282,3.540
112011122,0.610,0.793,4.150
112011202,0.488,0.793,4.150
112011212,0.488,0.793,4.150
112011222,0.549,0.854,4.333
112012002,0.549,0.854,4.333
112012012,0.549,0.854,4.333
112012022,0.854,1.587,4.028
112012102,0.854,1.587,4.028
112012112,0.854,1.587,4.028
112012122,0.854,2.502,3.601
112012202,0.854,2.502,3.601
112012212,0.854,2.502,3.601
112012222,0.854,3.052,3.174
112020002,0.854,3.052,3.174
112020012,1.038,3.357,2.991
112020022,1.038,3.357,2.991
112020102,1.038,3.357,2.991
112020112,1.038,3.357,2.869
112020122,1.038,3.357,2.869
112020202,1.038,3.357,2.869
112020212,0.854,3.052,2.747
112020222,0.854,3.052,2.747
112021002,0.854,3.052,2.747
112021012,1.038,2.747,2.747
112021022,1.038,2.747,2.747
112021102,1.038,2.747,3.052
112021112,1.221,2.075,3.052
112021122,1.221,2.075,3.052
112021202,1.343,1.465,3.418
112021212,1.343,1.465,3.418
112021222,1.343,1.465,3.418
112022002,1.099,1.038,3.601
112022012,1.099,1.038,3.601
112022022,1.099,1.038,3.601
112022102,1.099,1.160,3.662
112022112,1.099,1.160,3.662
112022122,1.099,1.160,3.662
112022202,1.404,1.282,3.601
112022212,1.404,1.282,3.601
112022222,1.404,1.282,3.601
112100002,1.587,1.709,3.601
112100012,1.587,1.709,3.601
112100022,1.953,2.197,3.296
112100102,1.953,2.197,3.296
112100112,1.953,2.197,3.296
112100122,2.136,2.686,2.991
112100202,2.136,2.686,2.991
112100212,2.136,2.686,2.991
112100222,2.075,2.991,2.808
112101002,2.075,2.991,2.808
112101012,2.075,2.991,2.808
112101022,1.648,2.930,2.808
112101102,1.648,2.930,2.808
112101112,1.648,2.136,2.930
112101122,1.282,2.136,2.930
112101202,1.282,2.136,2.930
112101212,0.977,0.610,3.052
112101222,0.977,0.610,3.052
112102002,0.977,0.610,3.052
112102012,1.160,-0.610,3.540
112102022,1.160,-0.610,3.540
112102102,1.160,-0.610,3.540
112102120,1.343,-1.099,3.784
112102200,1.343,-1.099,3.784
112102210,1.343,-1.099,3.845
112102220,1.648,-1.160,3.845
112110000,1.648,-1.160,3.845
112110010,1.892,-0.671,3.784
112110020,1.892,-0.671,3.784
112110100,1.892,-0.671,3.784
112110110,1.892,-0.061,3.784
112110120,1.892,-0.061,3.784
112110201,1.892,-0.061,3.784
112110211,1.770,0.671,3.479
112110220,1.770,0.671,3.479
112111000,1.770,1.709,3.174
112111010,1.648,1.709,3.174
112111020,1.648,1.709,3.174
112111101,1.465,2.319,2.869
112111110,1.465,2.319,2.869
112111120,1.465,2.319,2.869
112111200,1.221,2.686,2.747
112111211,1.221,2.686,2.747
112111221,1.221,2.686,2.747
112112000,1.038,3.113,2.869
112112010,1.038,3.113,2.869
112112020,1.038,3.113,2.869
112112100,0.916,2.930,2.991
112112110,0.916,2.930,2.991
112112121,1.099,2.747,2.991
112112201,1.099,2.747,2.991
112112211,1.099,2.747,2.991
112112221,1.343,2.686,2.991
112120001,1.343,2.686,2.991
112120011,1.343,2.686,2.991
112120021,1.526,2.686,2.991
112120101,1.526,2.686,2.991
112120111,1.526,2.686,2.991
112120121,1.404,2.563,3.113
112120201,1.404,2.563,3.113
112120211,1.404,2.258,3.845
112120221,1.160,2.258,3.845
112121001,1.160,2.258,3.845
112121011,0.793,1.343,4.211
112121021,0.793,1.343,4.211
112121101,0.793,1.343,4.211
112121111,0.977,0.671,4.456
112121121,0.977,0.671,4.456
112121201,0.977,0.671,4.456
112121211,1.221,0.793,4.456
112121221,1.221,0.793,4.456
112122001,1.221,0.793,4.456
112122011,1.038,1.770,4.089
112122021,1.038,1.770,4.089
112122101,1.038,2.502,4.333
112122111,0.610,2.502,4.333
112122121,0.610,2.502,4.333
112122201,0.366,2.686,4.517
112122211,0.366,2.686,4.517
112122221,0.366,2.686,4.517
112200001,0.427,2.441,4.456
112200011,0.427,2.441,4.456
112200021,0.427,2.441,4.456
112200101,0.916,2.441,4.028
112200111,0.916,2.441,4.028
112200121,0.916,2.441,4.028
112200201,1.160,2.502,4.028
112200211,1.160,2.502,4.028
112200221,1.282,2.502,4.089
112201001,1.282,2.502,4.089
112201011,1.282,2.502,4.089
112201021,1.526,2.380,4.150
112201101,1.526,2.380,4.150
112201111,1.526,2.380,4.150
112201121,1.404,2.075,4.150
112201201,1.404,2.075,4.150
112201211,1.404,2.075,4.150
112201221,1.343,1.709,3.967
112202001,1.343,1.709,3.967
112202011,1.343,1.709,3.967
112202021,1.526,1.343,3.784
112202101,1.526,1.343,3.784
112202111,1.892,1.038,3.906
112202121,1.892,1.038,3.906
112202201,1.892,1.038,3.906
112202211,2.136,0.916,3.784
112202221,2.136,0.916,3.784
112210001,2.136,0.916,3.784
112210011,1.404,1.282,3.723
112210021,1.404,1.282,3.723
112210101,1.404,1.282,3.723
112210111,0.549,1.953,3.479
112210121,0.549,1.953,3.479
112210201,0.549,1.953,3.174
112210211,0.305,2.686,3.174
112210221,0.305,2.686,3.174
112211001,0.977,3.052,3.052
112211011,0.977,3.052,3.052
112211021,0.977,3.052,3.052
112211101,1.770,2.991,3.296
112211111,1.770,2.991,3.296
112211121,1.770,2.991,3.296
112211201,2.014,2.808,3.479
112211211,2.014,2.808,3.479
112211221,2.014,2.808,3.479
112212001,1.953,2.380,3.784
112212011,1.953,2.380,3.784
112212021,1.953,2.380,3.845
112212101,1.953,2.014,3.845
112212111,1.953,2.014,3.845
112212121,2.197,1.770,4.028
112212201,2.197,1.770,4.028
112212211,2.197,1.770,4.028
112212221,2.808,1.648,4.211
112220001,2.808,1.648,4.211
112220011,2.808,1.648,4.211
112220021,3.174,1.770,4.211
112220101,3.174,1.770,4.211
112220111,3.174,1.770,4.211
112220121,2.563,2.197,3.967
112220201,2.563,2.197,3.967
112220211,2.563,2.808,3.845
112220221,1.282,2.808,3.845
112221001,1.282,2.808,3.845
112221011,0.671,3.113,3.784
112221021,0.671,3.113,3.784
112221101,0.671,3.113,3.784
112221111,0.854,2.991,3.418
112221121,0.854,2.991,3.418
112221201,0.854,2.991,3.418
112221211,1.831,2.380,3.235
112221221,1.831,2.380,3.235
112222001,1.831,2.380,3.235
112222011,2.441,1.770,3.235
112222021,2.441,1.770,3.235
112222101,2.441,1.465,3.296
112222111,2.747,1.465,3.296
112222121,2.747,1.465,3.296
112222201,2.869,1.770,3.052
112222211,2.869,1.770,3.052
112222221,2.869,1.770,3.052
120000001,3.235,2.197,2.747
120000011,3.235,2.197,2.747
120000021,3.235,2.197,2.747
120000101,3.479,2.380,2.991
120000111,3.479,2.380,2.991
120000121,3.479,2.380,2.991
120000201,3.601,2.136,3.174
120000211,3.601,2.136,3.174
120000221,3.540,1.770,3.601
120001001,3.540,1.770,3.601
120001011,3.540,1.770,3.601
120001021,3.113,1.648,3.723
120001101,3.113,1.648,3.723
120001111,3.113,1.648,3.723
120001121,2.502,1.709,3.723
120001201,2.502,1.709,3.723
120001211,2.502,1.709,3.723
120001221,1.892,1.587,3.662
120002001,1.892,1.587,3.662
120002011,1.892,1.587,3.662
120002021,1.526,1.526,3.784
120002101,1.526,1.526,3.784
120002111,1.404,1.526,3.906
120002121,1.404,1.526,3.906
120002201,1.404,1.526,3.906
120002211,1.892,1.709,3.845
120002221,1.892,1.709,3.845
120010001,1.892,1.709,3.845
120010011,2.319,2.319,3.662
120010021,2.319,2.319,3.662
120010101,2.319,2.319,3.662
120010111,2.197,3.113,3.418
120010121,2.197,3.113,3.418
120010201,2.197,3.113,3.235
120010211,1.892,3.723,3.235
120010221,1.892,3.723,3.235
120011001,1.770,3.662,3.174
120011011,1.770,3.662,3.174
120011021,1.770,3.662,3.174
120011101,1.892,3.052,3.113
120011111,1.892,3.052,3.113
120011121,1.892,3.052,3.113
120011201,2.197,2.197,3.296
120011211,2.197,2.197,3.296
120011221,2.197,2.197,3.296
120012001,2.441,1.526,3.662
120012011,2.441,1.526,3.662
120012021,2.441,1.526,3.479
120012101,2.258,1.465,3.479
120012111,2.258,1.465,3.479
120012121,1.953,1.648,3.235
120012201,1.953,1.648,3.235
120012211,1.953,1.648,3.235
120012221,2.014,1.770,2.930
120020001,2.014,1.770,2.930
120020011,2.014,1.770,2.930
120020021,2.136,1.892,2.625
120020101,2.136,1.892,2.625
120020111,2.136,1.892,2.625
120020121,1.831,1.953,2.808
120020201,1.831,1.953,2.808
120020211,1.831,1.770,2.991
120020221,1.709,1.770,2.991
120021001,1.709,1.770,2.991
120021011,1.770,1.587,2.930
120021021,1.770,1.587,2.930
120021101,1.770,1.587,2.930
120021111,1.892,1.343,3.052
120021121,1.892,1.343,3.052
120021201,1.892,1.343,3.052
120021211,2.319,1.282,3.113
120021221,2.319,1.282,3.113
120022001,2.319,1.282,3.113
120022011,2.747,1.343,2.747
120022021,2.747,1.343,2.747
120022101,2.991,1.892,2.441
120022111,2.991,1.892,2.441
120022121,2.991,1.892,2.441
120022201,2.747,2.625,2.380
120022211,2.747,2.625,2.380
120022221,2.747,2.625,2.380
120100001,2.075,2.930,2.380
120100011,2.075,2.930,2.380
120100021,2.075,2.930,2.380
120100101,2.014,2.808,2.441
120100111,2.014,2.808,2.441
120100121,2.014,2.808,2.441
120100201,2.014,2.014,2.808
120100211,2.014,2.014,2.808
120100221,2.014,0.916,3.235
120101001,2.014,0.916,3.235
120101011,2.014,0.916,3.235
120101021,1.953,0.122,3.479
120101101,1.953,0.122,3.479
120101111,1.953,0.122,3.479
120101121,1.587,-0.244,3.540
120101201,1.587,-0.244,3.540
120101211,1.587,-0.244,3.540
120101221,1.709,-0.183,3.357
120102001,1.709,-0.183,3.357
120102011,1.831,0.061,3.174
120102021,1.831,0.061,3.174
120102101,1.831,0.061,3.174
120102111,2.197,0.671,2.991
120102121,2.197,0.671,2.991
120102201,2.197,0.671,2.991
120102211,2.563,1.404,2.625
120102221,2.563,1.404,2.625
120110001,2.563,1.404,2.625
120110011,2.502,2.441,2.441
120110021,2.502,2.441,2.441
120110101,2.502,2.441,2.441
120110111,2.563,2.930,2.502
120110121,2.563,2.930,2.502
120110201,2.563,2.930,2.808
120110211,2.563,2.930,2.808
120110221,2.563,2.930,2.808
120111001,2.502,2.319,3.052
120111011,2.502,2.319,3.052
120111021,2.502,2.319,3.052
120111101,2.197,1.770,3.540
120111111,2.197,1.770,3.540
120111121,2.197,1.770,3.540
120111201,1.526,1.404,3.906
120111211,1.526,1.404,3.906
120111221,1.526,1.404,3.906
120112001,1.099,1.282,3.967
120112011,1.099,1.282,3.967
120112021,0.793,1.465,3.784
120112101,0.793,1.465,3.784
120112111,0.793,1.465,3.784
120112121,0.732,0.977,3.418
120112201,0.732,0.977,3.418
120112211,0.732,0.977,3.418
120112221,0.916,0.183,3.357
120120001,0.916,0.183,3.357
120120011,0.916,0.183,3.357
120120021,1.221,-0.366,3.174
120120101,1.221,-0.366,3.174
120120111,1.221,-0.061,2.930
120120121,1.221,-0.061,2.930
120120201,1.221,-0.061,2.930
120120211,1.770,0.427,2.869
120120222,1.770,0.427,2.869
120121002,1.770,0.427,2.869
120121012,2.136,0.793,2.808
120121022,2.136,0.793,2.808
120121102,2.136,0.793,2.808
120121112,2.625,0.732,2.808
120121122,2.625,0.732,2.808
120121202,2.625,0.732,3.113
120121212,2.808,0.732,3.113
120121222,2.808,0.732,3.113
120122002,2.014,0.366,3.540
120122012,2.014,0.366,3.540
120122022,2.014,0.366,3.540
120122102,1.160,0.183,3.723
120122112,1.160,0.183,3.723
120122122,1.160,0.183,3.723
120122201,0.854,0.488,3.418
120122212,0.854,0.488,3.418
120122222,0.854,0.488,3.418
120200002,0.977,1.099,3.052
120200012,0.977,1.099,3.052
120200022,0.977,1.099,2.441
120200101,1.343,1.709,2.441
120200111,1.343,1.709,2.441
120200121,1.831,2.258,2.197
120200202,1.831,2.258,2.197
120200212,1.831,2.258,2.197
120200222,2.136,2.563,2.136
120201002,2.136,2.563,2.136
120201012,2.136,2.563,2.136
120201022,1.892,2.563,2.319
120201102,1.892,2.563,2.319
120201112,1.892,2.563,2.319
120201122,1.526,2.380,2.258
120201202,1.526,2.380,2.258
120201212,1.526,2.136,2.563
120201221,1.404,2.136,2.563
120202002,1.404,2.136,2.563
120202012,1.587,1.465,2.869
120202022,1.587,1.465,2.869
120202102,1.587,1.465,2.869
120202112,1.953,1.038,2.930
120202122,1.953,1.038,2.930
120202202,1.953,1.038,2.930
120202212,2.502,1.038,2.686
120202222,2.502,1.038,2.686
120210002,2.502,1.038,2.686
120210012,2.502,1.526,2.380
120210022,2.502,1.526,2.380
120210102,2.197,2.441,2.075
120210112,2.197,2.441,2.075
120210122,2.197,2.441,2.075
120210202,2.075,2.930,2.136
120210212,2.075,2.930,2.136
120210222,2.075,2.930,2.136
120211002,1.953,2.869,2.502
120211012,1.953,2.869,2.502
120211022,1.953,2.869,2.502
120211102,1.770,2.075,2.991
120211112,1.770,2.075,2.991
120211122,1.770,2.075,3.418
120211202,1.404,1.587,3.418
120211212,1.404,1.587,3.418
120211222,1.465,1.404,3.784
120212002,1.465,1.404,3.784
120212012,1.465,1.404,3.784
120212022,1.648,1.892,3.601
120212102,1.648,1.892,3.601
120212112,1.648,1.892,3.601
120212122,1.648,2.502,3.296
120212202,1.648,2.502,3.296
120212212,1.648,2.502,3.296
120212222,1.770,2.747,3.052
120220002,1.770,2.747,3.052
120220012,1.770,2.747,3.357
120220022,1.648,2.502,3.357
120220102,1.648,2.502,3.357
120220112,1.526,2.380,3.662
120220122,1.526,2.380,3.662
120220202,1.526,2.380,3.662
120220212,1.282,2.014,3.906
120220222,1.282,2.014,3.906
120221002,1.282,2.014,3.906
120221012,1.221,2.197,3.784
120221022,1.221,2.197,3.784
120221102,1.221,2.197,3.784
120221112,1.404,2.502,3.357
120221122,1.404,2.502,3.357
120221202,1.404,2.747,3.235
120221212,1.465,2.747,3.235
120221222,1.465,2.747,3.235
120222002,1.892,2.686,3.235
120222012,1.892,2.686,3.235
120222022,1.892,2.686,3.235
120222102,2.014,2.441,3.296
120222112,2.014,2.441,3.296
120222122,2.014,2.441,3.296
120222202,2.197,2.441,3.479
120222212,2.197,2.441,3.479
120222222,2.197,2.441,3.479
121000002,2.686,2.197,3.540
121000012,2.686,2.197,3.540
121000022,2.625,2.258,3.540
121000102,2.625,2.258,3.540
121000112,2.625,2.258,3.540
121000122,2.563,2.319,3.662
121000202,2.563,2.319,3.662
121000212,2.563,2.319,3.662
121000222,2.502,2.136,3.723
121001002,2.502,2.136,3.723
121001012,2.502,2.136,3.723
121001022,2.563,1.953,3.479
121001102,2.563,1.953,3.479
121001112,2.563,1.953,3.479
121001122,2.686,1.892,3.174
121001202,2.686,1.892,3.174
121001212,2.808,1.770,3.052
121001222,2.808,1.770,3.052
121002002,2.808,1.770,3.052
121002012,2.869,1.587,2.930
121002022,2.869,1.587,2.930
121002102,2.869,1.587,2.930
121002112,2.869,1.892,2.930
121002122,2.869,1.892,2.930
121002202,2.869,1.892,2.930
121002212,2.747,2.380,2.869
121002222,2.747,2.380,2.869
121010002,2.747,2.380,2.869
121010012,2.625,2.869,2.625
121010022,2.625,2.869,2.625
121010102,2.930,3.601,2.380
121010112,2.930,3.601,2.380
121010122,2.930,3.601,2.380
121010202,2.686,3.967,2.502
121010212,2.686,3.967,2.502
121010222,2.686,3.967,2.502
121011002,2.441,3.784,2.686
121011012,2.441,3.784,2.686
121011022,2.441,3.784,2.686
121011102,2.136,2.930,2.930
121011112,2.136,2.930,2.930
121011122,2.136,2.930,3.052
121011202,2.014,2.502,3.052
121011212,2.014,2.502,3.052
121011222,2.014,2.014,3.052
121012002,2.014,2.014,3.052
121012012,2.014,2.014,3.052
121012022,1.831,1.465,3.113
121012102,1.831,1.465,3.113
121012112,1.831,1.465,3.113
121012122,2.014,1.099,3.357
121012202,2.014,1.099,3.357
121012212,2.014,1.099,3.357
121012222,2.075,1.038,3.296
121020002,2.075,1.038,3.296
121020012,2.075,1.221,2.991
121020022,1.892,1.221,2.991
121020102,1.892,1.221,2.991
121020112,1.892,1.648,2.869
121020122,1.892,1.648,2.869
121020202,1.892,1.648,2.869
121020212,2.014,2.075,2.747
121020222,2.014,2.075,2.747
121021002,2.014,2.075,2.747
121021012,2.014,2.197,2.686
121021022,2.014,2.197,2.686
121021102,2.014,2.197,2.686
121021112,1.953,2.197,2.686
121021122,1.953,2.197,2.686
121021202,1.953,2.075,2.869
121021212,1.526,2.075,2.869
121021222,1.526,2.075,2.869
121022002,1.221,2.075,3.235
121022012,1.221,2.075,3.235
121022022,1.221,2.075,3.235
121022102,0.977,2.014,3.479
121022112,0.977,2.014,3.479
121022122,0.977,2.014,3.479
121022202,1.160,1.709,3.418
121022212,1.160,1.709,3.418
121022222,1.160,1.709,3.418
121100002,1.160,1.831,3.662
121100012,1.160,1.831,3.662
121100022,0.854,2.014,3.662
121100102,0.854,2.014,3.662
121100112,0.854,2.014,3.662
121100122,0.610,2.136,3.418
121100202,0.610,2.136,3.418
121100212,0.610,2.136,3.418
121100222,-0.061,2.502,2.991
121101002,-0.061,2.502,2.991
121101012,-0.061,2.502,2.991
121101022,-0.183,2.502,2.625
121101102,-0.183,2.502,2.625
121101112,-0.183,1.953,2.258
121101122,0.732,1.953,2.258
121101202,0.732,1.953,2.258
121101212,1.343,1.648,2.380
121101222,1.343,1.648,2.380
121102002,1.343,1.648,2.380
121102012,1.465,1.221,2.563
121102022,1.465,1.221,2.563
121102102,1.465,1.221,2.563
121102112,1.526,1.587,2.441
121102122,1.526,1.587,2.441
121102202,1.526,1.587,2.441
121102212,1.587,1.953,2.258
121102222,1.587,1.953,2.258
121110002,1.831,2.319,2.319
121110012,1.831,2.319,2.319
121110022,1.831,2.319,2.319
121110102,1.526,2.197,2.563
121110112,1.526,2.197,2.563
121110122,1.526,2.197,2.563
121110202,0.977,1.953,2.869
121110212,0.977,1.953,2.869
121110222,0.977,1.953,2.869
121111002,0.549,1.892,3.174
121111012,0.549,1.892,3.174
121111022,0.549,1.892,3.113
121111102,0.488,1.648,3.113
121111112,0.488,1.648,3.113
121111122,0.793,1.343,2.869
121111202,0.793,1.343,2.869
121111212,0.793,1.343,2.869
121111222,1.221,1.282,2.991
121112002,1.221,1.282,2.991
121112012,1.221,1.282,2.991
121112022,1.221,1.404,3.296
121112102,1.221,1.404,3.296
121112112,1.221,1.404,3.296
121112122,1.099,1.404,3.296
121112202,1.099,1.404,3.296
121112212,1.099,1.526,3.296
121112222,0.854,1.526,3.296
121120002,0.854,1.526,3.296
121120012,1.038,2.014,3.235
121120022,1.038,2.014,3.235
121120102,1.038,2.014,3.235
121120112,1.282,2.258,3.174
121120122,1.282,2.258,3.174
121120202,1.282,2.258,3.174
121120212,1.648,2.563,2.869
121120222,1.648,2.563,2.869
121121002,1.648,2.563,2.869
121121012,1.709,2.686,2.808
121121022,1.709,2.686,2.808
121121102,1.709,3.113,2.563
121121112,1.404,3.113,2.563
121121122,1.404,3.113,2.563
121121202,1.404,3.418,2.197
121121212,1.404,3.418,2.197
121121222,1.404,3.418,2.197
121122002,1.770,3.357,2.136
121122012,1.770,3.357,2.136
121122022,1.770,3.357,2.136
121122102,2.014,2.869,2.380
121122112,2.014,2.869,2.380
121122122,2.014,2.869,2.380
121122202,1.770,2.197,2.930
121122212,1.770,2.197,2.930
121122222,1.404,1.587,3.662
121200002,1.404,1.587,3.662
121200012,1.404,1.587,3.662
121200022,1.465,0.977,4.028
121200102,1.465,0.977,4.028
121200112,1.465,0.977,4.028
121200122,1.526,0.916,4.089
121200202,1.526,0.916,4.089
121200212,1.526,0.916,4.089
121200222,1.404,1.221,4.211
121201002,1.404,1.221,4.211
121201012,1.404,1.221,4.395
121201022,1.099,1.526,4.395
121201102,1.099,1.526,4.395
121201112,0.854,1.099,4.456
121201122,0.854,1.099,4.456
121201202,0.854,1.099,4.456
121201212,0.610,0.732,4.272
121201222,0.610,0.732,4.272
121202002,0.610,0.732,4.272
121202012,0.671,0.732,3.906
121202022,0.671,0.732,3.906
121202102,0.671,0.732,3.906
121202112,1.282,1.465,3.479
121202122,1.282,1.465,3.479
121202202,1.282,1.465,3.052
121202212,1.526,2.014,3.052
121202222,1.526,2.014,3.052
121210002,1.709,2.319,2.747
121210012,1.709,2.319,2.747
121210022,1.709,2.319,2.747
121210102,1.770,2.258,2.747
121210112,1.770,2.258,2.747
121210122,1.770,2.258,2.747
121210202,1.892,2.075,2.747
121210212,1.892,2.075,2.747
121210222,1.892,2.075,2.747
121211002,2.136,1.770,2.502
121211012,2.136,1.770,2.502
121211022,2.136,1.648,2.502
121211102,2.563,1.648,2.502
121211112,2.563,1.648,2.502
121211122,2.441,1.526,2.563
121211202,2.441,1.526,2.563
121211212,2.441,1.526,2.563
121211222,1.892,1.343,2.563
121212002,1.892,1.343,2.563
121212012,1.892,1.343,2.563
121212022,1.404,1.648,2.747
121212102,1.404,1.648,2.747
121212112,1.404,1.648,2.747
121212122,1.099,2.014,2.747
121212202,1.099,2.014,2.747
121212212,1.099,1.953,2.625
121212222,0.854,1.953,2.625
121220002,0.854,1.953,2.625
121220012,0.732,2.014,2.625
121220022,0.732,2.014,2.625
121220102,0.732,2.014,2.625
121220112,0.916,1.831,2.625
121220122,0.916,1.831,2.625
121220202,0.916,1.831,2.625
121220212,1.221,1.953,2.625
121220222,1.221,1.953,2.625
121221002,1.221,1.953,2.625
121221012,1.648,2.197,2.258
121221022,1.648,2.197,2.258
121221102,1.953,2.563,2.014
121221112,1.953,2.563,2.014
121221122,1.953,2.563,2.014
121221202,1.831,3.113,1.831
121221212,1.831,3.113,1.831
121221222,1.831,3.113,1.831
121222002,2.014,3.113,1.770
121222012,2.014,3.113,1.770
121222022,2.014,3.113,1.770
121222102,1.953,2.808,1.587
121222112,1.953,2.808,1.587
121222122,1.953,2.808,1.587
121222202,1.648,2.502,1.770
121222212,1.648,2.502,1.770
121222222,1.404,2.136,1.892
122000002,1.404,2.136,1.892
122000012,1.404,2.136,1.892
122000022,1.343,2.014,1.953
122000102,1.343,2.014,1.953
122000112,1.343,2.014,1.953
122000122,1.465,1.953,2.136
122000202,1.465,1.953,2.136
122000212,1.465,1.953,2.136
122000222,1.587,2.075,2.136
122001002,1.587,2.075,2.136
122001012,1.587,2.075,2.075
122001022,1.831,2.563,2.075
122001102,1.831,2.563,2.075
122001112,2.014,2.869,2.197
122001122,2.014,2.869,2.197
122001202,2.014,2.869,2.197
122001212,2.136,2.991,2.258
122001222,2.136,2.991,2.258
122002002,2.136,2.991,2.258
122002012,2.136,2.808,2.380
122002022,2.136,2.808,2.380
122002102,2.136,2.808,2.380
122002112,2.014,2.319,2.563
122002122,2.014,2.319,2.563
122002202,2.014,2.319,2.747
122002212,1.953,1.892,2.747
122002222,1.953,1.892,2.747
122010002,2.014,1.648,2.869
122010012,2.014,1.648,2.869
122010022,2.014,1.648,2.869
122010102,1.831,1.526,3.174
122010112,1.831,1.526,3.174
122010122,1.831,1.526,3.174
122010202,1.831,1.587,3.357
122010212,1.831,1.587,3.357
122010222,1.831,1.587,3.357
122011002,1.343,1.648,3.418
122011012,1.343,1.648,3.418
122011022,1.343,1.404,3.601
122011102,0.977,1.404,3.601
122011112,0.977,1.404,3.601
122011122,0.916,1.526,3.662
122011202,0.916,1.526,3.662
122011212,0.916,1.526,3.662
122011222,1.343,1.526,3.723
122012002,1.343,1.526,3.723
122012012,1.343,1.526,3.723
122012022,1.709,1.465,3.662
122012102,1.709,1.465,3.662
122012112,1.709,1.465,3.662
122012122,1.831,1.282,3.601
122012202,1.831,1.282,3.601
122012212,1.831,1.343,3.845
122012222,1.526,1.343,3.845
122020002,1.526,1.343,3.845
122020012,1.343,1.648,3.967
122020022,1.343,1.648,3.967
122020102,1.343,1.648,3.967
122020112,1.343,1.709,4.089
122020122,1.343,1.709,4.089
122020202,1.343,1.709,4.089
122020212,1.587,1.953,3.845
122020222,1.587,1.953,3.845
122021002,1.587,1.953,3.845
122021012,1.587,1.953,3.479
122021022,1.587,1.953,3.479
122021102,1.404,2.075,3.235
122021112,1.404,2.075,3.235
122021122,1.404,2.075,3.235
122021202,1.526,2.075,2.930
122021212,1.526,2.075,2.930
122021222,1.526,2.075,2.930
122022002,1.892,1.953,2.625
122022012,1.892,1.953,2.625
122022022,1.892,1.953,2.625
122022102,2.136,2.197,2.686
122022112,2.136,2.197,2.686
122022122,2.136,2.197,2.686
122022202,2.563,2.441,2.686
122022212,2.563,2.441,2.686
122022222,2.563,2.441,2.563
122100002,2.563,2.441,2.563
122100012,2.563,2.441,2.563
122100022,2.258,2.502,2.991
122100102,2.258,2.502,2.991
122100112,2.258,2.502,2.991
122100122,1.831,2.380,3.540
122100202,1.831,2.380,3.540
122100212,1.831,2.380,3.540
122100222,1.770,2.136,3.845
122101002,1.770,2.136,3.845
122101012,1.770,2.136,3.967
122101022,2.014,1.953,3.967
122101102,2.014,1.953,3.967
122101112,1.892,1.648,3.784
122101122,1.892,1.648,3.784
122101202,1.892,1.648,3.784
122101212,1.770,1.709,3.540
122101222,1.770,1.709,3.540
122102002,1.770,1.709,3.540
122102012,1.587,2.075,3.357
122102022,1.587,2.075,3.357
122102102,1.587,2.075,3.357
122102112,1.404,2.625,3.174
122102122,1.404,2.625,3.174
122102202,1.404,2.625,2.869
122102212,1.282,2.747,2.869
122102222,1.282,2.747,2.869
122110002,1.587,2.625,2.747
122110012,1.587,2.625,2.747
122110022,1.587,2.625,2.747
122110102,2.014,2.380,2.991
122110112,2.014,2.380,2.991
122110122,2.014,2.380,2.991
122110202,2.136,2.197,2.930
122110212,2.136,2.197,2.930
122110222,2.136,2.197,2.930
122111002,2.014,2.319,2.930
122111012,2.014,2.319,2.930
122111022,2.014,2.441,3.052
122111102,1.648,2.441,3.052
122111112,1.648,2.441,3.052
122111122,1.343,2.441,3.113
122111202,1.343,2.441,3.113
122111212,1.343,2.441,3.113
122111222,1.160,2.441,3.052
122112002,1.160,2.441,3.052
122112012,1.160,2.441,3.052
122112022,1.404,2.258,3.052
122112102,1.404,2.258,3.052
122112112,1.404,2.258,3.052
122112122,1.709,2.197,2.869
122112202,1.709,2.197,2.869
122112212,1.709,2.075,2.625
122112222,1.892,2.075,2.625
122120002,1.892,2.075,2.625
122120012,1.953,1.831,2.380
122120022,1.953,1.831,2.380
122120102,1.953,1.831,2.380
122120112,1.892,1.831,2.197
122120122,1.892,1.831,2.197
122120202,1.892,1.831,2.197
122120212,1.709,2.075,2.075
122120222,1.709,2.075,2.075
122121002,1.709,2.075,2.075
122121012,1.404,2.441,2.014
122121022,1.404,2.441,2.014
122121102,1.587,2.686,1.892
122121112,1.587,2.686,1.892
122121122,1.587,2.686,1.892
122121202,1.770,2.625,1.892
122121212,1.770,2.625,1.892
122121222,1.770,2.625,1.892
122122002,1.465,2.441,2.380
122122012,1.465,2.441,2.380
122122022,1.465,2.441,2.380
122122102,1.282,2.258,2.869
122122112,1.282,2.258,2.869
122122122,1.282,2.258,3.052
122122202,1.282,2.075,3.052
122122212,1.282,2.075,3.052
122122222,1.953,2.625,2.686
122200002,1.953,2.625,2.686
122200012,1.953,2.625,2.686
122200022,2.319,3.113,2.197
122200102,2.319,3.113,2.197
122200112,2.319,3.113,2.197
122200122,2.319,3.418,2.197
122200202,2.319,3.418,2.197
122200212,2.319,3.418,2.197
122200222,1.709,3.052,2.625
122201002,1.709,3.052,2.625
122201012,1.709,3.052,2.930
122201022,0.916,2.441,2.930
122201102,0.916,2.441,2.930
122201112,0.549,1.709,3.296
122201122,0.549,1.709,3.296
122201202,0.549,1.709,3.296
122201212,0.000,1.099,3.357
122201222,0.000,1.099,3.357
122202002,0.000,1.099,3.357
122202012,-0.366,1.404,3.601
122202022,-0.366,1.404,3.601
122202102,-0.366,1.404,3.601
122202120,-0.122,1.892,3.479
122202200,-0.122,1.892,3.479
122202210,0.122,2.258,3.174
122202220,0.122,2.258,3.174
122210000,0.122,2.258,3.174
122210010,0.732,2.563,3.052
122210020,0.732,2.563,3.052
122210100,0.732,2.563,3.052
122210110,1.404,2.502,2.869
122210120,1.404,2.502,2.869
122210200,1.404,2.502,2.869
122210210,1.587,2.502,2.869
122210220,1.587,2.502,2.869
122211000,1.587,2.502,3.174
122211010,1.587,2.380,3.174
122211020,1.587,2.380,3.174
122211100,1.648,2.075,3.479
122211110,1.648,2.075,3.479
122211120,1.648,2.075,3.479
122211200,1.892,1.587,3.540
122211210,1.892,1.587,3.540
122211220,1.892,1.587,3.540
122212000,1.770,1.526,3.296
122212010,1.770,1.526,3.296
122212020,1.770,1.526,3.296
122212100,1.587,2.258,2.747
122212110,1.587,2.258,2.747
122212120,1.587,2.991,2.197
122212200,1.282,2.991,2.197
122212210,1.282,2.991,2.197
122212220,1.282,3.174,1.709
122220000,1.282,3.174,1.709
122220010,1.282,3.174,1.709
122220020,1.465,3.052,1.526
122220100,1.465,3.052,1.526
122220110,1.465,3.052,1.526
122220120,1.648,2.625,1.587
122220200,1.648,2.625,1.587
122220210,1.648,2.625,1.587
122220220,1.648,2.380,1.770
122221000,1.648,2.380,1.770
122221010,1.648,1.892,1.892
122221020,1.770,1.892,1.892
122221100,1.770,1.892,1.892
122221110,1.770,1.892,2.136
122221120,1.770,1.892,2.136
122221200,1.770,1.892,2.136
122221210,2.014,2.258,2.136
122221220,2.014,2.258,2.136
122222000,2.014,2.258,2.136
122222010,2.014,2.319,2.014
122222020,2.014,2.319,2.014
122222100,2.014,2.319,2.014
122222110,2.014,2.502,2.197
122222120,2.014,2.502,2.197
122222200,2.380,2.869,2.014
122222210,2.380,2.869,2.014
122222220,2.380,2.869,2.014
200000000,2.991,3.296,1.953
200000010,2.991,3.296,1.953
200000020,2.991,3.296,1.953
200000100,2.808,3.723,1.831
200000110,2.808,3.723,1.831
200000120,2.808,3.723,1.831
200000200,2.258,3.784,1.892
200000210,2.258,3.784,1.892
200000220,2.258,3.784,1.892
200001000,2.014,3.235,2.136
200001010,2.014,3.235,2.136
200001020,2.014,2.197,2.625
200001100,2.014,2.197,2.625
200001110,2.014,2.197,2.625
200001120,2.014,1.343,2.930
200001200,2.014,1.343,2.930
200001210,2.014,1.343,2.930
200001220,1.892,0.549,3.113
200002000,1.892,0.549,3.113
200002010,1.892,0.549,3.113
200002020,1.953,0.549,3.357
200002100,1.953,0.549,3.357
200002110,1.953,0.549,3.296
200002120,2.136,0.671,3.296
200002200,2.136,0.671,3.296
200002210,2.380,1.099,3.357
200002220,2.380,1.099,3.357
200010000,2.380,1.099,3.357
200010010,2.380,1.709,3.357
200010020,2.380,1.709,3.357
200010100,2.380,1.709,3.357
200010110,2.686,2.197,3.174
200010120,2.686,2.197,3.174
200010200,2.686,2.197,3.174
200010210,2.625,2.686,3.357
200010220,2.625,2.686,3.357
200011000,2.625,2.686,3.296
200011010,2.625,2.686,3.296
200011020,2.625,2.686,3.296
200011100,2.686,2.258,3.235
200011110,2.686,2.258,3.235
200011120,2.686,2.258,3.235
200011200,2.441,1.648,3.723
200011210,2.441,1.648,3.723
200011220,2.441,1.648,3.723
200012000,2.380,0.977,4.089
200012010,2.380,0.977,4.089
200012020,2.380,0.977,4.089
200012100,2.136,0.793,4.089
200012110,2.136,0.793,4.089
200012120,2.136,0.793,4.028
200012200,2.014,0.793,4.028
200012210,2.014,0.793,4.028
200012220,2.075,1.160,4.028
200020000,2.075,1.160,4.028
200020010,2.075,1.160,4.028
200020020,2.075,1.343,4.150
200020100,2.075,1.343,4.150
200020110,2.075,1.343,4.150
200020120,2.014,1.404,4.211
200020200,2.014,1.404,4.211
200020210,2.014,1.404,4.211
200020220,1.892,1.709,4.089
200021000,1.892,1.709,4.089
200021010,1.953,1.709,3.906
200021020,1.953,1.709,3.906
200021100,1.953,1.709,3.906
200021110,2.197,1.465,3.601
200021120,2.197,1.465,3.601
200021200,2.197,1.465,3.601
200021210,2.075,1.587,3.418
200021220,2.075,1.587,3.418
200022000,2.075,1.587,3.418
200022010,2.258,1.648,3.357
200022020,2.258,1.648,3.357
200022100,2.258,1.648,3.357
200022110,2.075,1.953,3.296
200022120,2.075,1.953,3.296
200022200,1.953,2.075,3.113
200022210,1.953,2.075,3.113
200022220,1.953,2.075,3.113
200100000,1.892,2.136,3.174
200100010,1.892,2.136,3.174
200100020,1.892,2.136,3.174
200100100,1.831,2.197,3.418
200100110,1.831,2.197,3.418
200100120,1.831,2.197,3.418
200100200,1.770,2.136,3.479
200100210,1.770,2.136,3.479
200100220,1.770,2.136,3.540
200101000,1.709,1.953,3.540
200101010,1.709,1.953,3.540
200101020,1.587,1.526,3.235
200101100,1.587,1.526,3.235
200101110,1.587,1.526,3.235
200101120,1.648,1.465,3.235
200101200,1.648,1.465,3.235
200101210,1.648,1.465,3.235
200101220,1.953,1.526,3.113
200102000,1.953,1.526,3.113
200102010,1.953,1.526,3.113
200102020,2.258,1.648,2.808
200102100,2.258,1.648,2.808
200102110,2.258,1.648,2.441
200102120,2.197,1.953,2.441
200102200,2.197,1.953,2.441
200102210,1.770,2.075,2.380
200102220,1.770,2.075,2.380
200110000,1.770,2.075,2.380
200110010,1.343,2.136,2.319
200110020,1.343,2.136,2.319
200110100,1.343,2.136,2.319
200110110,1.099,2.014,2.197
200110120,1.099,2.014,2.197
200110200,1.099,2.014,2.197
200110210,1.404,1.831,2.136
200110220,1.404,1.831,2.136
200111000,1.404,1.282,2.197
200111010,1.648,1.282,2.197
200111020,1.648,1.282,2.197
200111100,1.587,1.343,2.258
200111110,1.587,1.343,2.258
200111120,1.587,1.343,2.258
200111200,1.709,1.648,2.014
200111210,1.709,1.648,2.014
200111220,1.709,1.648,2.014
200112000,1.709,1.953,1.465
200112010,1.709,1.953,1.465
200112020,1.709,1.953,1.465
200112100,1.892,2.258,1.282
200112110,1.892,2.258,1.282
200112120,1.892,2.380,1.526
200112200,2.197,2.380,1.526
200112210,2.197,2.380,1.526
200112220,2.197,2.441,1.831
200120000,2.197,2.441,1.831
200120010,2.197,2.441,1.831
200120020,1.892,2.441,1.831
200120100,1.892,2.441,1.831
200120110,1.892,2.441,1.831
200120120,1.831,2.502,1.953
200120200,1.831,2.502,1.953
200120210,1.831,2.502,1.953
200120220,1.465,2.686,2.319
200121000,1.465,2.686,2.319
200121010,1.465,2.808,2.380
200121020,1.099,2.808,2.380
200121100,1.099,2.808,2.380
200121110,0.916,2.502,2.625
200121120,0.916,2.502,2.625
200121200,0.916,2.502,2.625
200121210,0.793,2.075,2.991
200121220,0.793,2.075,2.991
200122000,0.793,2.075,2.991
200122010,0.977,1.587,3.174
200122020,0.977,1.587,3.174
200122100,0.977,1.587,3.174
200122110,1.404,1.526,2.930
200122120,1.404,1.526,2.930
200122200,1.831,1.770,2.808
200122210,1.831,1.770,2.808
200122220,1.831,1.770,2.808
200200000,1.770,2.136,2.747
200200010,1.770,2.136,2.747
200200020,1.770,2.136,2.747
200200100,1.953,2.258,2.563
200200110,1.953,2.258,2.563
200200120,1.953,2.258,2.563
200200200,2.258,2.258,2.502
200200210,2.258,2.258,2.502
200200220,2.258,2.258,2.502
200201000,2.197,2.197,2.625
200201010,2.197,2.197,2.625
200201020,2.014,1.953,3.174
200201100,2.014,1.953,3.174
200201110,2.014,1.953,3.174
200201120,2.014,1.648,3.601
200201200,2.014,1.648,3.601
200201210,2.014,1.648,3.601
200201220,2.075,1.343,3.906
200202000,2.075,1.343,3.906
200202010,2.075,1.343,3.906
200202020,1.892,1.221,4.028
200202100,1.892,1.221,4.028
200202110,1.892,1.221,3.967
200202120,1.953,1.526,3.967
200202200,1.953,1.526,3.967
200202210,1.953,1.709,3.601
