timestamp,gyrX,gyrY,gyrZ
100202010,2.258,-0.183,2.075
100202020,1.953,0.122,2.441
100202100,1.953,0.122,2.441
100202110,1.953,0.122,2.441
100202120,0.916,0.244,2.563
100202200,0.916,0.244,2.563
100202210,0.916,0.244,2.563
100202220,0.000,0.610,2.930
100210000,0.000,0.610,2.930
100210010,0.000,0.610,2.930
100210020,-0.671,0.977,3.174
100210100,-0.671,0.977,3.174
100210110,-0.671,1.038,3.235
100210120,-0.671,1.038,3.235
100210200,-0.671,1.038,3.235
100210210,0.000,0.854,3.540
100210220,0.000,0.854,3.540
100211000,0.000,0.854,3.540
100211010,0.977,0.793,3.845
100211020,0.977,0.793,3.845
100211100,0.977,0.793,3.845
100211110,1.709,0.366,4.211
100211120,1.709,0.366,4.211
100211200,1.709,-0.061,4.578
100211210,1.709,-0.061,4.578
100211220,1.709,-0.061,4.578
100212000,1.587,-0.366,4.822
100212010,1.587,-0.366,4.822
100212020,1.587,-0.366,4.822
100212101,1.892,-0.244,4.761
100212111,1.892,-0.244,4.761
100212121,1.892,-0.244,4.761
100212201,2.014,0.244,4.089
100212211,2.014,0.244,4.089
100212221,1.953,0.977,3.601
100220001,1.953,0.977,3.601
100220011,1.953,0.977,3.601
100220021,1.099,1.648,3.357
100220101,1.099,1.648,3.357
100220111,1.099,1.648,3.357
100220121,-0.061,1.770,3.601
100220201,-0.061,1.770,3.601
100220211,-0.061,1.770,3.601
100220221,-0.610,1.709,4.089
100221001,-0.610,1.709,4.089
100221011,-0.427,1.099,4.517
100221021,-0.427,1.099,4.517
100221101,-0.427,1.099,4.517
100221112,0.793,0.793,4.883
100221122,0.793,0.793,4.883
100221202,0.793,0.793,4.883
100221212,1.831,0.610,4.883
100221222,1.831,0.610,4.883
100222002,1.831,0.610,4.883
100222012,2.380,0.488,5.188
100222022,2.380,0.488,5.188
100222102,2.380,0.366,5.432
100222112,2.686,0.366,5.432
100222122,2.686,0.366,5.432
100222202,2.502,-0.183,5.615
100222212,2.502,-0.183,5.615
100222222,2.502,-0.183,5.615
101000002,2.686,-0.671,5.737
101000012,2.686,-0.671,5.737
101000022,2.686,-0.671,5.737
101000102,3.296,-1.221,5.493
101000112,3.296,-1.221,5.493
101000122,3.845,-1.282,4.822
101000210,3.845,-1.282,4.822
101000220,3.845,-1.282,4.822
101001000,3.723,-1.038,4.211
101001010,3.723,-1.038,4.211
101001020,3.723,-1.038,4.211
101001100,3.113,-0.549,3.723
101001110,3.113,-0.549,3.723
101001120,3.113,-0.549,3.357
101001200,1.709,-0.366,3.357
101001210,1.709,-0.366,3.357
101001220,0.427,-0.488,2.747
101002000,0.427,-0.488,2.747
101002010,0.427,-0.488,2.747
101002021,-0.610,-0.793,2.075
101002101,-0.610,-0.793,2.075
101002111,-0.610,-0.793,2.075
101002121,-1.587,-1.221,1.526
101002201,-1.587,-1.221,1.526
101002211,-2.319,-1.526,1.343
101002221,-2.319,-1.526,1.343
101010002,-2.319,-1.526,1.343
101010012,-2.014,-1.526,1.526
101010022,-2.014,-1.526,1.526
101010102,-2.014,-1.526,1.526
101010112,-1.160,-1.343,1.648
101010122,-1.160,-1.343,1.648
101010202,-0.549,-1.160,2.014
101010220,-0.549,-1.160,2.014
101011000,-0.549,-1.160,2.014
101011010,0.305,-1.038,1.831
101011020,0.305,-1.038,1.831
101011100,0.305,-1.038,1.831
101011110,1.343,-1.038,1.038
101011120,1.343,-1.038,1.038
101011201,2.075,-0.610,-0.183
101011211,2.075,-0.610,-0.183
101011221,2.075,-0.610,-0.183
101012001,2.563,0.793,-1.343
101012011,2.563,0.793,-1.343
101012021,2.563,0.793,-1.343
101012101,2.258,2.747,-2.136
101012112,2.258,2.747,-2.136
101012122,1.526,4.150,-2.380
101012202,1.526,4.150,-2.380
101012212,1.526,4.150,-2.380
101012222,0.488,4.944,-2.075
101020002,0.488,4.944,-2.075
101020012,0.488,4.944,-2.075
101020022,-0.549,4.578,-1.282
101020102,-0.549,4.578,-1.282
101020120,-1.099,2.747,-0.366
101020200,-1.099,2.747,-0.366
101020210,-1.099,2.747,-0.366
101020220,-0.671,0.549,0.671
101021000,-0.671,0.549,0.671
101021010,-0.671,0.549,0.671
101021020,0.305,-1.587,2.075
101021100,0.305,-1.587,2.075
101021111,0.305,-3.784,2.686
101021121,0.244,-3.784,2.686
101021201,0.244,-3.784,2.686
101021211,-0.793,-5.371,2.441
101021221,-0.793,-5.371,2.441
101022001,-0.793,-5.371,2.441
101022011,-2.136,-6.165,1.648
101022022,-2.136,-6.165,1.648
101022102,-3.113,-5.920,-0.305
101022112,-3.113,-5.920,-0.305
101022122,-3.113,-5.920,-0.305
101022210,-3.357,-5.310,-2.808
101022220,-3.357,-5.310,-2.808
101100000,-3.357,-5.310,-6.226
101100010,-2.991,-4.333,-6.226
101100021,-2.991,-4.333,-6.226
101100101,-1.648,-4.089,-9.033
101100111,-1.648,-4.089,-9.033
101100122,-1.648,-4.089,-9.033
101100202,1.038,-5.615,-9.216
101100212,1.038,-5.615,-9.216
101100222,4.211,-8.667,-7.141
101101002,4.211,-8.667,-7.141
101101020,4.211,-8.667,-7.141
101101100,8.484,-13.733,-3.662
101101110,8.484,-13.733,-3.662
101101120,8.484,-20.325,-0.366
101101200,12.878,-20.325,-0.366
101101211,12.878,-20.325,-0.366
101101221,16.235,-26.855,3.418
101102001,16.235,-26.855,3.418
101102011,16.235,-26.855,3.418
101102021,17.578,-31.189,5.737
101102101,17.578,-31.189,5.737
101102111,17.578,-32.593,6.104
101102121,16.968,-32.593,6.104
101102201,16.968,-32.593,6.104
101102212,15.320,-30.273,4.272
101102222,15.320,-30.273,4.272
101110002,15.320,-30.273,4.272
101110012,12.695,-25.330,1.160
101110022,12.695,-25.330,1.160
101110102,12.695,-25.330,1.160
101110112,9.399,-18.494,-1.953
101110122,9.399,-18.494,-1.953
101110202,6.531,-11.047,-4.761
101110220,6.531,-11.047,-4.761
101111000,6.531,-11.047,-4.761
101111010,2.502,-3.601,-6.714
101111020,2.502,-3.601,-6.714
101111100,2.502,-3.601,-6.714
101111111,-4.517,3.784,-6.714
101111121,-4.517,3.784,-6.714
101111201,-3.540,6.897,-6.104
101111211,-3.540,6.897,-6.104
101111221,-3.540,6.897,-6.104
101112001,1.648,5.493,-4.089
101112011,1.648,5.493,-4.089
101112022,1.648,5.493,-0.610
101112102,7.690,2.197,-0.610
101112112,7.690,2.197,-0.610
101112122,12.451,-1.526,4.456
101112202,12.451,-1.526,4.456
101112212,12.451,-1.526,4.456
101112222,15.259,-4.333,9.644
101120002,15.259,-4.333,9.644
101120012,15.259,-4.333,9.644
101120022,15.076,-4.639,13.000
101120102,15.076,-4.639,13.000
101120120,14.099,-3.174,13.733
101120200,14.099,-3.174,13.733
101120210,14.099,-3.174,13.733
101120220,12.512,-0.488,12.939
101121000,12.512,-0.488,12.939
101121010,12.512,-0.488,12.939
101121020,9.155,4.028,12.390
101121100,9.155,4.028,12.390
101121110,9.155,4.028,12.878
101121120,3.967,10.193,12.878
101121200,3.967,10.193,12.878
101121210,-1.770,17.334,14.587
101121220,-1.770,17.334,14.587
101122000,-1.770,17.334,14.587
101122010,-6.592,24.353,17.456
101122020,-6.592,24.353,17.456
101122101,-6.592,24.353,17.456
101122111,-10.254,30.334,21.057
101122121,-10.254,30.334,21.057
101122201,-10.254,34.973,25.269
101122211,-14.282,34.973,25.269
101122221,-14.282,34.973,25.269
101200001,-19.287,39.063,30.212
101200011,-19.287,39.063,30.212
101200021,-19.287,39.063,30.212
101200101,-26.062,42.908,35.522
101200112,-26.062,42.908,35.522
101200122,-26.062,42.908,35.522
101200202,-33.447,45.105,39.734
101200212,-33.447,45.105,39.734
101200222,-41.748,45.776,42.236
101201002,-41.748,45.776,42.236
101201012,-41.748,45.776,42.236
101201022,-52.368,45.776,43.335
101201102,-52.368,45.776,43.335
101201112,-52.368,45.776,43.335
101201122,-64.453,45.471,43.945
101201202,-64.453,45.471,43.945
101201220,-64.453,45.410,43.335
101202000,-73.669,45.410,43.335
101202010,-73.669,45.410,43.335
101202020,-77.454,45.166,40.955
101202100,-77.454,45.166,40.955
101202110,-77.454,45.166,40.955
101202120,-76.782,43.396,37.781
101202200,-76.782,43.396,37.781
101202210,-76.782,43.396,37.781
101202220,-71.533,37.964,34.546
101210001,-71.533,37.964,34.546
101210011,-63.354,28.137,30.945
101210021,-63.354,28.137,30.945
101210101,-63.354,28.137,30.945
101210111,-62.256,14.893,32.043
101210121,-62.256,14.893,32.043
101210201,-62.256,14.893,32.043
101210211,-45.593,2.869,26.794
101210221,-45.593,2.869,26.794
101211001,-29.785,-2.136,18.494
101211012,-29.785,-2.136,18.494
101211022,-29.785,-2.136,18.494
101211102,-16.846,-7.446,13.672
101211112,-16.846,-7.446,13.672
101211122,-16.846,-7.446,13.672
101211210,-2.258,-6.348,2.014
101211220,-2.258,-6.348,2.014
101212000,-0.549,-6.592,-2.441
101212010,-0.549,-6.592,-2.441
101212020,-0.549,-6.592,-2.441
101212101,11.475,-4.639,-13.062
101212111,11.475,-4.639,-13.062
101212121,11.475,-4.639,-24.353
101212201,19.348,-1.831,-24.353
101212211,19.348,-1.831,-24.353
101212221,19.653,0.427,-29.541
101220002,19.653,0.427,-29.541
101220012,19.653,0.427,-29.541
101220022,18.433,1.831,-34.790
101220102,18.433,1.831,-34.790
101220112,18.433,1.831,-34.790
101220122,15.747,2.258,-36.682
101220202,15.747,2.258,-36.682
101220212,12.024,1.404,-30.396
101220222,12.024,1.404,-30.396
101221002,12.024,1.404,-30.396
101221012,10.742,-1.953,-17.883
101221022,10.742,-1.953,-17.883
101221110,10.742,-1.953,-17.883
101221120,12.695,-8.301,-3.113
101221200,12.695,-8.301,-3.113
101221210,18.005,-18.982,9.460
101221220,18.005,-18.982,9.460
101222000,18.005,-18.982,9.460
101222011,24.170,-29.602,18.799
101222021,24.170,-29.602,18.799
101222101,24.170,-29.602,18.799
101222111,30.579,-33.325,18.127
101222121,30.579,-33.325,18.127
101222201,28.564,-26.978,12.512
101222211,28.564,-26.978,12.512
101222221,28.564,-26.978,12.512
102000001,17.822,-12.634,5.432
102000011,17.822,-12.634,5.432
102000021,17.822,-12.634,5.432
102000102,5.432,3.906,-2.991
102000112,5.432,3.906,-2.991
102000122,5.432,3.906,-12.207
102000202,-2.136,17.944,-12.207
102000212,-2.136,17.944,-12.207
102000222,-6.592,25.635,-18.494
102001002,-6.592,25.635,-18.494
102001012,-6.592,25.635,-18.494
102001100,-8.728,25.940,-20.020
102001110,-8.728,25.940,-20.020
102001120,-8.728,25.940,-16.968
102001200,-9.399,20.325,-16.968
102001210,-9.399,20.325,-16.968
102001221,-11.169,11.414,-9.583
102002001,-11.169,11.414,-9.583
102002011,-11.169,11.414,-9.583
102002021,-14.404,1.953,-0.732
102002101,-14.404,1.953,-0.732
102002111,-16.113,-6.531,7.751
102002122,-16.113,-6.531,7.751
102002202,-16.113,-6.531,7.751
102002212,-14.038,-10.864,13.367
102002222,-14.038,-10.864,13.367
102010002,-14.038,-10.864,13.367
102010012,-9.338,-9.155,14.648
102010100,-9.338,-9.155,14.648
102010110,-4.883,-3.113,13.245
102010120,-4.883,-3.113,13.245
102010200,-4.883,-3.113,13.245
102010210,-1.038,5.066,10.559
102010220,-1.038,5.066,10.559
102011001,-1.038,5.066,10.559
102011011,2.869,13.367,8.362
102011021,2.869,13.367,8.362
102011101,2.869,18.738,8.057
102011111,4.333,18.738,8.057
102011121,4.333,18.738,8.057
102011201,2.380,19.287,10.315
102011211,2.380,19.287,10.315
102011220,2.380,19.287,10.315
102012000,-2.075,14.221,12.939
102012011,-2.075,14.221,12.939
102012021,-2.075,14.221,12.939
102012101,-8.118,6.409,14.526
102012111,-8.118,6.409,14.526
102012121,-8.118,6.409,15.320
102012201,-15.076,-0.122,15.320
102012211,-15.076,-0.122,15.320
102012221,-18.372,-4.761,15.808
102020001,-18.372,-4.761,15.808
102020011,-18.372,-4.761,15.808
102020022,-18.494,-8.362,17.700
102020102,-18.494,-8.362,17.700
102020112,-18.494,-8.362,17.700
102020122,-18.066,-9.827,19.775
102020202,-18.066,-9.827,19.775
102020212,-16.296,-6.653,19.531
102020222,-16.296,-6.653,19.531
102021010,-16.296,-6.653,19.531
102021020,-11.414,-0.977,16.602
102021100,-11.414,-0.977,16.602
102021110,-11.414,14.648,13.855
102021120,-6.714,4.456,13.855
102021200,-6.714,4.456,13.855
102021210,-1.770,8.240,11.902
102021220,-1.770,8.240,11.902
102022001,-1.770,8.240,11.902
102022011,2.747,8.606,11.047
102022021,2.747,8.606,11.047
102022101,2.747,8.606,11.047
102022111,3.479,6.531,12.085
102022121,3.479,6.531,12.085
102022201,3.479,6.531,13.794
102022211,1.831,3.967,13.794
102022221,1.831,3.967,13.794
102100001,2.686,0.000,13.977
102100011,2.686,0.000,13.977
102100021,2.686,0.000,13.977
102100101,5.310,-4.211,14.771
102100111,5.310,-4.211,14.771
102100121,5.310,-4.211,14.771
102100201,5.554,-8.362,15.869
102100211,5.554,-8.362,15.869
102100221,5.554,-8.362,0.244
102101001,2.747,-9.766,15.381
102101011,2.747,-9.766,15.381
102101021,0.427,-7.263,12.756
102101101,0.427,-7.263,12.756
102101111,0.427,-7.263,12.756
102101121,0.122,-2.075,7.080
102101201,0.122,-2.075,7.080
102101211,0.122,-2.075,7.080
102101222,2.563,5.188,0.183
102102002,2.563,5.188,0.183
102102012,2.563,5.188,-5.554
102102022,6.104,13.306,-5.554
102102102,6.104,13.306,-5.554
102102112,10.010,19.470,-9.033
102102122,10.010,19.470,-9.033
102102202,10.010,19.470,-9.033
102102212,11.353,20.081,-9.338
102102222,11.353,20.081,-9.338
102110002,11.353,20.081,-9.338
102110012,9.644,17.761,-8.301
102110022,9.644,17.761,-8.301
102110102,9.644,15.808,-7.507
102110120,7.690,15.808,-7.507
102110200,7.690,15.808,-7.507
102110210,5.249,14.893,-6.714
102110220,5.249,14.893,-6.714
102111000,5.249,14.893,-6.714
102111010,2.258,14.465,-6.470
102111020,2.258,14.465,-6.470
102111100,2.258,14.465,-6.470
102111110,0.366,13.550,-7.996
102111120,0.366,13.550,-7.996
102111200,0.488,12.085,-10.132
102111210,0.488,12.085,-10.132
102111220,0.488,12.085,-10.132
102112000,3.662,10.193,-12.024
102112011,3.662,10.193,-12.024
102112021,3.662,10.193,-12.024
102112101,8.057,9.949,-11.414
102112111,8.057,9.949,-11.414
102112121,8.057,9.949,-7.935
102112201,12.451,11.658,-7.935
102112211,12.451,11.658,-7.935
102112221,17.456,13.489,-3.479
102120001,17.456,13.489,-3.479
102120011,17.456,13.489,-3.479
102120021,23.071,13.184,-0.183
102120101,23.071,13.184,-0.183
102120111,23.071,13.184,-0.183
102120121,27.344,10.620,2.563
102120201,27.344,10.620,2.563
102120211,27.344,10.620,4.517
102120221,27.893,7.751,4.517
102121001,27.893,7.751,4.517
102121011,25.879,6.104,4.089
102121021,25.879,6.104,4.089
102121101,25.879,6.104,4.089
102121111,22.278,6.531,1.282
102121121,22.278,6.531,1.282
102121201,22.278,6.531,1.282
102121211,19.043,8.057,-2.502
102121221,19.043,8.057,-2.502
102122001,19.043,8.057,-2.502
102122011,16.785,9.460,-6.775
102122021,16.785,9.460,-6.775
102122101,16.785,10.803,-10.620
102122112,15.686,10.803,-10.620
102122122,15.686,10.803,-10.620
102122202,16.663,11.230,-13.184
102122212,16.663,11.230,-13.184
102122222,16.663,11.230,-13.184
102200002,22.095,9.277,-14.099
102200012,22.095,9.277,-14.099
102200022,22.095,9.277,-14.099
102200102,30.640,6.165,-13.306
102200112,30.640,6.165,-13.306
102200122,39.368,4.456,-11.292
102200202,39.368,4.456,-11.292
102200212,39.368,4.456,-11.292
102200222,44.128,4.395,-9.277
102201002,44.128,4.395,-9.277
102201020,44.128,4.395,-9.277
102201100,44.556,4.639,-8.667
102201110,44.556,4.639,-8.667
102201120,44.556,4.639,-8.667
102201200,41.626,4.822,-9.644
102201210,41.626,4.822,-9.644
102201220,35.950,5.249,-11.597
102202000,35.950,5.249,-11.597
102202010,35.950,5.249,-11.597
102202020,27.954,5.676,-13.916
102202100,27.954,5.676,-13.916
102202110,27.954,5.676,-13.916
102202120,19.470,5.493,-15.625
102202200,19.470,5.493,-15.625
102202211,19.470,4.883,-16.113
102202221,12.573,4.883,-16.113
102210001,12.573,4.883,-16.113
102210011,8.118,3.540,-15.320
102210021,8.118,3.540,-15.320
102210101,8.118,3.540,-15.320
102210111,5.737,1.526,-13.855
102210121,5.737,1.526,-13.855
102210201,5.737,1.526,-13.855
102210211,5.493,-0.732,-12.695
102210221,5.493,-0.732,-12.695
102211001,6.958,-1.465,-12.512
102211012,6.958,-1.465,-12.512
102211022,6.958,-1.465,-12.512
102211102,9.521,-1.343,-11.963
102211112,9.521,-1.343,-11.963
102211122,9.521,-1.343,-11.963
102211202,13.000,-2.441,-11.047
102211220,13.000,-2.441,-11.047
102212000,14.893,-4.700,-9.460
102212010,14.893,-4.700,-9.460
102212020,14.893,-4.700,-9.460
102212100,13.489,-7.874,-8.057
102212110,13.489,-7.874,-8.057
102212121,13.489,-7.874,-8.057
102212201,9.216,-11.536,-6.897
102212211,9.216,-11.536,-6.897
102212221,2.686,-15.198,-6.165
102220001,2.686,-15.198,-6.165
102220011,2.686,-15.198,-6.165
102220022,-5.066,-18.921,-6.470
102220102,-5.066,-18.921,-6.470
102220112,-5.066,-18.921,-7.263
102220122,-12.939,-20.996,-7.263
102220210,-12.939,-20.996,-7.263
102220220,-20.264,-19.226,-8.179
102221000,-20.264,-19.226,-8.179
102221010,-20.264,-19.226,-8.179
102221021,-26.306,-14.221,-10.193
102221101,-26.306,-14.221,-10.193
102221111,-29.663,-10.681,-12.329
102221121,-29.663,-10.681,-12.329
102221201,-29.663,-10.681,-12.329
102221212,-29.541,-10.193,-12.451
102221222,-29.541,-10.193,-12.451
102222002,-29.541,-13.184,-8.423
102222012,-25.879,-13.184,-8.423
102222100,-25.879,-13.184,-8.423
102222110,-19.043,-21.057,-2.502
102222120,-19.043,-21.057,-2.502
102222200,-19.043,-21.057,-2.502
102222211,-10.132,-31.189,3.113
102222221,-10.132,-31.189,3.113
110000001,-2.258,-40.833,7.812
110000011,-2.258,-40.833,7.812
110000021,-2.258,-40.833,7.812
110000101,2.380,-48.035,10.925
110000111,2.380,-48.035,10.925
110000121,2.380,-48.035,10.925
110000201,5.554,-52.124,12.268
110000212,5.554,-52.124,12.268
110000222,6.775,-52.063,12.695
110001002,6.775,-52.063,12.695
110001012,6.775,-52.063,12.695
110001022,4.883,-48.218,12.573
110001102,4.883,-48.218,12.573
110001112,4.883,-48.218,12.573
110001122,-0.549,-38.635,11.230
110001202,-0.549,-38.635,11.230
110001212,-0.549,-38.635,7.751
110001222,-11.963,-22.949,7.751
110002010,-11.963,-22.949,7.751
110002020,-25.696,-6.470,1.282
110002100,-25.696,-6.470,1.282
110002110,-25.696,-6.470,1.282
110002120,-35.950,4.761,-6.531
110002200,-35.950,4.761,-6.531
110002210,-35.950,4.761,-12.756
110002221,-38.940,8.789,-12.756
110010001,-38.940,8.789,-12.756
110010011,-32.227,5.188,-14.404
110010021,-32.227,5.188,-14.404
110010101,-32.227,5.188,-14.404
110010112,-14.526,-6.042,-9.949
110010122,-14.526,-6.042,-9.949
110010202,10.010,-25.330,-1.221
110010212,10.010,-25.330,-1.221
110010222,10.010,-25.330,-1.221
110011002,34.058,-45.349,9.399
110011012,34.058,-45.349,9.399
110011100,34.058,-45.349,9.399
110011110,50.476,-58.594,19.470
110011120,50.476,-58.594,19.470
110011200,50.476,-61.829,26.611
110011210,55.176,-61.829,26.611
110011220,55.176,-61.829,26.611
110012000,48.584,-54.749,27.771
110012010,48.584,-54.749,27.771
110012020,48.584,-54.749,27.771
110012100,33.020,-39.978,21.484
110012110,33.020,-39.978,21.484
110012120,33.020,-39.978,21.484
110012200,14.709,-21.851,11.230
110012210,14.709,-21.851,11.230
110012221,0.061,-5.127,0.366
110020001,0.061,-5.127,0.366
110020011,0.061,-5.127,0.366
110020021,-8.240,5.920,-8.240
110020101,-8.240,5.920,-8.240
110020111,-8.240,5.920,-8.240
110020121,-12.207,9.705,-11.780
110020201,-12.207,9.705,-11.780
110020211,-12.207,9.705,-9.094
110020221,-12.634,5.310,-9.094
110021002,-12.634,5.310,-9.094
110021012,-9.888,-4.333,-2.808
110021022,-9.888,-4.333,-2.808
110021102,-9.888,-4.333,-2.808
110021120,-5.371,-13.550,5.188
110021200,-5.371,-13.550,5.188
110021210,-0.977,-17.761,15.442
110021220,-0.977,-17.761,15.442
110022000,-0.977,-17.761,15.442
110022010,3.052,-15.930,24.109
110022021,3.052,-15.930,24.109
110022101,3.052,-15.930,24.109
110022111,5.859,-10.132,28.748
110022121,5.859,-10.132,28.748
110022201,5.859,-1.770,29.236
110022211,4.944,-1.770,29.236
110022221,4.944,-1.770,29.236
110100001,0.366,9.155,26.978
110100011,0.366,9.155,26.978
110100021,0.366,9.155,26.978
110100101,-7.385,19.592,24.170
110100111,-7.385,19.592,24.170
110100121,-7.385,19.592,24.170
110100201,-18.127,27.466,21.973
110100211,-18.127,27.466,21.973
110100221,-31.128,32.776,20.691
110101002,-31.128,32.776,20.691
110101012,-31.128,32.776,20.691
110101022,-44.617,35.400,19.226
110101102,-44.617,35.400,19.226
110101112,-44.617,35.400,19.226
110101122,-56.335,36.194,15.869
110101202,-56.335,36.194,15.869
110101212,-56.335,36.194,0.244
110101222,-63.232,34.119,11.292
110102002,-63.232,34.119,11.292
110102012,-65.002,30.090,8.423
110102022,-65.002,30.090,8.423
110102102,-65.002,30.090,8.423
110102112,-61.646,25.940,9.949
110102200,-61.646,25.940,9.949
110102210,-61.646,25.940,9.949
110102220,-54.443,23.132,18.311
110110000,-54.443,23.132,18.311
110110010,-54.443,23.132,31.006
110110020,-45.227,20.630,31.006
110110100,-45.227,20.630,31.006
110110110,-35.339,17.517,43.396
110110120,-35.339,17.517,43.396
110110200,-35.339,17.517,43.396
110110210,-27.039,13.611,50.903
110110220,-27.039,13.611,50.903
110111000,-27.039,13.611,50.903
110111010,-21.545,10.071,51.636
110111020,-21.545,10.071,51.636
110111100,-21.545,9.216,46.997
110111111,-19.531,9.216,46.997
110111121,-19.531,9.216,46.997
110111201,-19.714,11.902,39.856
110111211,-19.714,11.902,39.856
110111221,-19.714,11.902,39.856
110112001,-24.353,18.188,33.142
110112011,-24.353,18.188,33.142
110112021,-24.353,18.188,33.142
110112101,-32.104,23.193,30.090
110112111,-32.104,23.193,30.090
110112121,-29.602,32.471,20.569
110112201,-29.602,32.471,20.569
110112211,-29.602,32.471,20.569
110112221,-33.020,44.556,10.376
110120001,-33.020,44.556,10.376
110120012,-33.020,44.556,10.376
110120022,-38.086,59.326,-0.610
110120102,-38.086,59.326,-0.610
110120112,-38.086,59.326,-11.841
110120122,-45.349,77.332,-11.841
110120202,-45.349,77.332,-11.841
110120212,-56.580,91.736,-21.362
110120222,-56.580,91.736,-21.362
110121010,-56.580,91.736,-21.362
110121020,-57.495,101.746,-36.255
110121100,-57.495,101.746,-36.255
110121110,-57.495,101.746,-46.814
110121120,-52.551,107.056,-46.814
110121200,-52.551,107.056,-46.814
110121211,-47.668,101.135,-43.274
110121221,-47.668,101.135,-43.274
110122001,-47.668,101.135,-43.274
110122011,-43.274,80.994,-30.334
110122021,-43.274,80.994,-30.334
110122101,-43.274,48.523,-20.142
110122111,-32.104,48.523,-20.142
110122122,-32.104,48.523,-20.142
110122202,-11.597,18.066,-16.846
110122212,-11.597,18.066,-16.846
110122222,-11.597,18.066,-16.846
110200002,7.690,-7.141,-11.353
110200012,7.690,-7.141,-11.353
110200022,7.690,-28.076,-6.470
110200110,24.841,-28.076,-6.470
110200120,24.841,-28.076,-6.470
110200200,38.330,-41.077,-5.920
110200210,38.330,-41.077,-5.920
110200220,38.330,-41.077,-5.920
110201000,47.668,-41.931,-8.301
110201010,47.668,-41.931,-8.301
110201021,47.668,-32.227,-12.024
110201101,50.537,-32.227,-12.024
110201111,50.537,-32.227,-12.024
110201121,47.241,-18.799,-17.029
110201201,47.241,-18.799,-17.029
110201211,47.241,-18.799,-17.029
110201222,35.400,-7.202,-22.461
110202002,35.400,-7.202,-22.461
110202012,19.775,3.052,-28.015
110202022,24.353,3.052,-28.015
110202102,24.353,3.052,-28.015
110202112,19.043,10.315,-30.334
110202122,19.043,10.315,-30.334
110202202,19.043,10.315,-30.334
110202212,20.630,10.010,-27.649
110202222,20.630,10.010,-27.649
110210002,20.630,10.010,-27.649
110210012,27.466,1.770,-19.653
110210022,27.466,1.770,-19.653
110210102,36.133,-11.292,-7.996
110210120,36.133,-11.292,-7.996
110210200,36.133,-11.292,-7.996
110210210,43.396,-25.269,1.953
110210220,43.396,-25.269,1.953
110211000,43.396,-25.269,1.953
110211010,46.753,-36.255,7.629
110211020,46.753,-36.255,7.629
110211100,46.753,-41.260,7.446
110211110,45.471,-41.260,7.446
110211120,45.471,-41.260,7.446
110211201,38.574,-39.551,1.831
110211211,38.574,-39.551,1.831
110211221,38.574,-39.551,1.831
110212001,26.001,-30.457,-4.761
110212011,26.001,-30.457,-4.761
110212021,26.001,-30.457,-4.761
110212101,12.695,-18.066,-12.939
110212111,12.695,-18.066,-12.939
110212122,0.671,-6.592,-20.142
110212202,0.671,-6.592,-20.142
110212212,0.671,-6.592,-20.142
110212222,-9.644,-0.061,-22.949
110220002,-9.644,-0.061,-22.949
110220020,-9.644,15.564,-21.545
110220100,-11.719,0.427,-21.545
110220110,-11.719,0.427,-21.545
110220120,-4.272,-7.629,-17.578
110220200,-4.272,-7.629,-17.578
110220210,-4.272,-7.629,-17.578
110220221,10.498,-21.118,-10.254
110221001,10.498,-21.118,-10.254
110221011,28.381,-31.860,-2.319
110221021,28.381,-31.860,-2.319
110221101,28.381,-31.860,-2.319
110221111,41.870,-36.438,3.845
110221121,41.870,-36.438,3.845
110221202,41.870,-36.438,3.845
110221212,37.964,-34.241,6.958
110221222,37.964,-34.241,6.958
110222002,37.964,-34.241,6.958
110222012,29.480,-26.489,6.958
110222022,29.480,-26.489,6.958
110222102,19.592,-12.695,2.686
110222112,19.592,-12.695,2.686
110222122,19.592,-12.695,2.686
110222202,6.348,1.587,-2.380
110222212,6.348,1.587,-2.380
110222222,6.348,1.587,-2.380
111000002,-3.479,11.047,-6.042
111000012,-3.479,11.047,-6.042
111000100,-3.479,13.550,-6.348
111000110,-9.827,13.550,-6.348
111000120,-9.827,13.550,-6.348
111000200,-11.841,9.338,-2.319
111000210,-11.841,9.338,-2.319
111000220,-11.841,9.338,-2.319
111001000,-8.179,4.944,4.089
111001010,-8.179,4.944,4.089
111001021,-8.179,0.549,13.611
111001101,-4.150,0.549,13.611
111001111,-4.150,0.549,13.611
111001121,-2.197,-2.869,22.583
111001201,-2.197,-2.869,22.583
111001211,-2.197,-2.869,22.583
111001221,-3.906,-3.174,28.015
111002001,-3.906,-3.174,28.015
111002011,-3.906,-3.174,30.334
111002022,-10.315,-0.427,30.334
111002102,-10.315,-0.427,30.334
111002112,-18.127,3.662,29.236
111002122,-18.127,3.662,29.236
111002202,-18.127,3.662,29.236
111002212,-18.860,8.545,23.499
111002222,-18.860,8.545,23.499
111010002,-18.860,8.545,23.499
111010012,-14.832,11.108,18.494
111010022,-14.832,11.108,18.494
111010110,-11.353,10.803,17.883
111010120,-11.353,10.803,17.883
111010200,-11.353,10.803,17.883
111010210,-12.817,8.301,22.644
111010220,-12.817,8.301,22.644
111011000,-12.817,8.301,22.644
111011010,-16.663,5.371,28.748
111011020,-16.663,5.371,28.748
111011100,-16.663,5.371,30.518
111011110,-19.897,4.211,30.518
111011120,-19.897,4.211,30.518
111011200,-22.888,7.629,26.672
111011210,-22.888,7.629,26.672
111011220,-22.888,7.629,26.672
111012000,-22.949,17.395,19.165
111012011,-22.949,17.395,19.165
111012021,-22.949,17.395,19.165
111012101,-22.644,27.344,12.451
111012111,-22.644,27.344,12.451
111012121,-22.644,33.264,6.836
111012201,-21.729,33.264,6.836
111012211,-21.729,33.264,6.836
111012221,-15.381,35.461,0.793
111020001,-15.381,35.461,0.793
111020011,-15.381,35.461,0.793
111020021,-7.690,34.058,-3.174
111020101,-7.690,34.058,-3.174
111020111,-7.690,34.058,-3.174
111020122,-4.211,29.907,-4.883
111020202,-4.211,29.907,-4.883
111020212,-3.784,23.743,-4.822
111020222,-3.784,23.743,-4.822
111021002,-3.784,23.743,-4.822
111021012,-1.831,17.334,-3.845
111021100,-1.831,17.334,-3.845
111021110,-1.831,17.334,-3.845
111021120,0.793,12.573,-1.648
111021200,0.793,12.573,-1.648
111021210,0.244,13.306,3.235
111021220,0.244,13.306,3.235
111022000,0.244,13.306,3.235
111022010,0.183,19.409,7.935
111022020,0.183,19.409,7.935
111022100,0.183,19.409,7.935
111022110,1.648,26.672,9.155
111022120,1.648,26.672,9.155
111022200,1.648,26.672,9.155
111022210,3.784,31.189,7.202
111022220,3.784,31.189,7.202
111100000,3.784,31.189,7.202
111100010,6.653,32.776,2.075
111100020,6.653,32.776,2.075
111100100,10.071,31.799,-2.197
111100110,10.071,31.799,-2.197
111100120,10.071,31.799,-2.197
111100200,13.733,28.870,-4.028
111100210,13.733,28.870,-4.028
111100220,13.733,28.870,-4.028
111101000,17.456,24.353,-5.554
111101010,17.456,24.353,-5.554
111101020,17.456,24.353,-5.554
111101100,21.667,19.714,-7.446
111101110,21.667,19.714,-7.446
111101120,25.757,15.808,-9.460
111101200,25.757,15.808,-9.460
111101210,25.757,15.808,-9.460
111101220,28.931,12.634,-12.024
111102001,28.931,12.634,-12.024
111102011,28.931,12.634,-12.024
111102021,31.128,10.681,-13.733
111102101,31.128,10.681,-13.733
111102111,31.128,10.681,-13.550
111102121,32.776,10.010,-13.550
111102201,32.776,10.010,-13.550
111102211,35.095,9.094,-11.108
111102221,35.095,9.094,-11.108
111110001,35.095,9.094,-11.108
111110011,37.415,7.751,-6.958
111110021,37.415,7.751,-6.958
111110101,37.415,7.751,-6.958
111110111,39.246,6.104,-2.808
111110121,39.246,6.104,-2.808
111110201,39.246,4.395,0.122
111110211,39.734,4.395,0.122
111110221,39.734,4.395,0.122
111111001,38.086,2.197,1.709
111111011,38.086,2.197,1.709
111111021,38.086,2.197,1.709
111111101,33.630,0.000,0.793
111111111,33.630,0.000,0.793
111111121,33.630,0.000,0.793
111111201,26.489,-0.671,-2.136
111111211,26.489,-0.671,-2.136
111111222,26.489,-0.671,-2.136
111112002,17.700,1.404,-6.287
111112012,17.700,1.404,-6.287
111112022,8.240,5.066,-11.780
111112102,8.240,5.066,-11.780
111112112,8.240,5.066,-11.780
111112122,0.977,7.202,-16.235
111112202,0.977,7.202,-16.235
111112212,0.977,7.202,-16.235
111112222,-3.235,5.981,-16.357
111120002,-3.235,5.981,-16.357
111120020,-3.235,2.930,-12.329
111120100,-4.822,2.930,-12.329
111120110,-4.822,2.930,-12.329
111120120,-3.601,-1.526,-6.714
111120200,-3.601,-1.526,-6.714
111120211,-3.601,-1.526,-6.714
111120221,0.000,-7.629,-2.563
111121001,0.000,-7.629,-2.563
111121011,3.357,-12.451,-0.610
111121021,3.357,-12.451,-0.610
111121101,3.357,-12.451,-0.610
111121111,4.761,-13.611,-0.977
111121122,4.761,-13.611,-0.977
111121202,4.761,-13.611,-0.977
111121212,3.662,-12.085,-2.686
111121222,3.662,-12.085,-2.686
111122002,-0.061,-8.850,-5.859
111122012,-0.061,-8.850,-5.859
111122100,-0.061,-8.850,-5.859
111122110,-5.981,-4.639,-10.193
111122120,-5.981,-4.639,-10.193
111122200,-5.981,-4.639,-15.259
111122211,-14.648,0.610,-15.259
111122221,-14.648,0.610,-15.259
111200001,-25.085,5.920,-19.531
111200011,-25.085,5.920,-19.531
111200021,-25.085,5.920,-19.531
111200101,-35.034,8.972,-20.752
111200112,-35.034,8.972,-20.752
111200122,-35.034,8.118,-16.235
111200202,-40.405,8.118,-16.235
111200212,-40.405,8.118,-16.235
111200222,-38.330,3.174,-5.859
111201002,-38.330,3.174,-5.859
111201012,-38.330,3.174,-5.859
111201100,-30.701,-4.883,4.578
111201110,-30.701,-4.883,4.578
111201120,-30.701,-14.648,12.817
111201200,-18.799,-14.648,12.817
111201210,-18.799,-14.648,12.817
111201220,-5.066,-21.118,17.090
111202000,-5.066,-21.118,17.090
111202011,-5.066,-21.118,17.090
111202021,5.188,-22.095,18.372
111202101,5.188,-22.095,18.372
111202111,5.188,-22.095,15.747
111202121,8.362,-18.799,15.747
111202201,8.362,-18.799,15.747
111202211,4.089,-9.521,7.324
111202221,4.089,-9.521,7.324
111210001,4.089,-9.521,7.324
111210011,-7.507,4.517,-9.399
111210021,-7.507,4.517,-9.399
111210101,-7.507,4.517,-9.399
111210111,-24.170,20.996,-31.921
111210122,-24.170,20.996,-31.921
111210202,-36.560,34.729,-51.453
111210212,-36.560,34.729,-51.453
111210222,-36.560,34.729,-51.453
111211002,-38.269,39.490,-58.960
111211012,-38.269,39.490,-58.960
111211100,-38.269,39.490,-58.960
111211110,-28.381,30.273,-51.514
111211120,-28.381,30.273,-51.514
111211200,-10.010,9.888,-31.555
111211210,-10.010,9.888,-31.555
111211220,-10.010,9.888,-31.555
111212000,11.292,-14.404,-4.944
111212011,11.292,-14.404,-4.944
111212021,11.292,-14.404,-4.944
111212101,30.396,-38.879,22.217
111212111,30.396,-38.879,22.217
111212121,41.687,-57.373,44.800
111212201,41.687,-57.373,44.800
111212211,41.687,-57.373,44.800
111212221,43.518,-64.575,58.105
111220001,43.518,-64.575,58.105
111220011,43.518,-64.575,58.105
111220021,34.302,-56.030,61.768
111220101,34.302,-56.030,61.768
111220111,34.302,-56.030,61.768
111220122,12.085,-34.607,54.504
111220202,12.085,-34.607,54.504
111220212,-16.968,-8.301,38.940
111220222,-16.968,-8.301,38.940
111221002,-16.968,-8.301,38.940
111221012,-49.194,17.639,19.104
111221022,-49.194,17.639,19.104
111221102,-49.194,17.639,19.104
111221112,-78.186,39.307,0.183
111221122,-78.186,39.307,0.183
111221202,-78.186,49.133,-12.207
111221212,-92.896,49.133,-12.207
111222000,-92.896,49.133,-12.207
111222010,-89.233,43.274,-15.442
111222020,-89.233,43.274,-15.442
111222100,-89.233,43.274,-15.442
111222110,-71.289,24.963,-9.521
111222120,-71.289,24.963,-9.521
111222201,-71.289,1.648,0.732
111222211,-46.143,1.648,0.732
111222221,-46.143,1.648,0.732
112000001,-20.935,-19.958,14.221
112000011,-20.935,-19.958,14.221
112000021,-20.935,-19.958,14.221
112000101,-0.244,-36.316,28.137
112000111,-0.244,-36.316,28.137
112000122,-0.244,-36.316,39.612
112000202,13.000,-47.119,39.612
112000212,13.000,-47.119,39.612
112000222,18.616,-51.941,47.668
112001002,18.616,-51.941,47.668
112001012,18.616,-51.941,47.668
112001022,17.456,-51.636,52.917
112001102,17.456,-51.636,52.917
112001112,17.456,-51.636,52.917
112001122,12.085,-46.570,55.054
112001202,12.085,-46.570,55.054
112001212,12.085,-38.269,54.321
112001222,3.052,-38.269,54.321
112002002,3.052,-38.269,54.321
112002012,-9.216,-27.649,51.147
112002100,-9.216,-27.649,51.147
112002110,-9.216,-27.649,51.147
112002120,-25.024,-15.076,45.105
112002200,-25.024,-15.076,45.105
112002210,-25.024,-15.076,36.072
112002220,-39.307,-0.427,36.072
112010000,-39.307,-0.427,36.072
112010011,-49.561,16.357,26.428
112010021,-49.561,16.357,26.428
112010101,-49.561,16.357,26.428
112010111,-56.519,35.400,19.104
112010121,-56.519,35.400,19.104
112010201,-56.519,35.400,19.104
112010211,-57.678,54.443,16.052
112010221,-57.678,54.443,16.052
112011001,-53.406,68.542,18.311
112011011,-53.406,68.542,18.311
112011021,-53.406,68.542,18.311
112011101,-46.143,76.599,24.963
112011111,-46.143,76.599,24.963
112011122,-46.143,76.599,24.963
112011202,-38.696,77.759,35.339
112011212,-38.696,77.759,35.339
112011222,-38.696,77.759,49.377
112012002,-32.898,70.923,49.377
112012012,-32.898,70.923,49.377
112012022,-26.611,55.420,65.125
112012102,-26.611,55.420,65.125
112012112,-26.611,55.420,65.125
112012122,-19.775,34.790,78.369
112012202,-19.775,34.790,78.369
112012212,-19.775,34.790,78.369
112012222,-20.142,12.024,87.830
112020002,-20.142,12.024,87.830
112020020,-4.517,-1.221,87.402
112020100,-12.390,-1.221,87.402
112020110,-12.390,-1.221,87.402
112020120,-8.240,-7.812,79.590
112020200,-8.240,-7.812,79.590
112020210,-8.240,-7.812,79.590
112020220,-9.766,-12.939,68.970
112021001,-9.766,-12.939,68.970
112021011,-11.169,-15.808,56.213
112021021,-11.169,-15.808,56.213
112021101,-11.169,-15.808,56.213
112021111,-9.888,-14.709,44.189
112021122,-9.888,-14.709,44.189
112021202,-9.888,-14.709,44.189
112021212,-5.371,-11.841,32.593
112021222,-5.371,-11.841,32.593
112022002,2.197,-7.202,19.287
112022012,2.197,-7.202,19.287
112022022,2.197,-7.202,19.287
112022102,9.644,-1.587,6.409
112022112,9.644,-1.587,6.409
112022122,9.644,-1.587,6.409
112022210,16.418,5.249,-2.014
112022220,16.418,5.249,-2.014
112100000,16.418,5.249,-5.676
112100010,23.743,12.878,-5.676
112100020,23.743,12.878,-5.676
112100100,30.945,16.541,-5.615
112100110,30.945,16.541,-5.615
112100120,30.945,16.541,-5.615
112100200,37.415,12.085,-3.967
112100210,37.415,12.085,-3.967
112100220,37.415,12.085,-3.967
112101000,41.687,-0.305,-3.418
112101010,41.687,-0.305,-3.418
112101021,44.067,-18.616,-3.906
112101101,44.067,-18.616,-3.906
112101111,44.067,-18.616,-3.906
112101121,44.556,-38.147,-4.822
112101201,44.556,-38.147,-4.822
112101211,44.556,-38.147,-4.822
112101221,44.800,-53.833,-7.385
112102002,44.800,-53.833,-7.385
112102012,47.729,-62.378,-10.437
112102022,47.729,-62.378,-10.437
112102102,47.729,-62.378,-10.437
112102112,52.002,-62.561,-14.404
112102122,52.002,-62.561,-14.404
112102210,52.002,-62.561,-14.404
112102220,55.115,-53.528,-19.470
112110000,55.115,-53.528,-19.470
112110010,56.152,-40.222,-27.039
112110020,56.152,-40.222,-27.039
112110100,56.152,-40.222,-27.039
112110111,59.082,-27.832,-35.706
112110121,59.082,-27.832,-35.706
112110201,59.082,-27.832,-35.706
112110211,66.467,-20.935,-44.189
112110221,66.467,-20.935,-44.189
112111001,77.698,-19.653,-51.941
112111011,77.698,-19.653,-51.941
112111022,77.698,-19.653,-51.941
112111102,87.341,-20.996,-55.725
112111112,87.341,-20.996,-55.725
112111122,87.341,-20.996,-55.725
112111202,92.529,-22.156,-53.223
112111212,92.529,-22.156,-53.223
112112000,94.421,-22.461,-46.509
112112010,94.421,-22.461,-46.509
112112020,94.421,-22.461,-46.509
112112100,91.187,-22.156,-38.208
112112110,91.187,-22.156,-38.208
112112120,91.187,-22.156,-22.583
112112200,81.482,-20.020,-30.945
112112211,81.482,-20.020,-30.945
112112221,67.627,-14.954,-24.292
112120001,67.627,-14.954,-24.292
112120011,67.627,-14.954,-24.292
112120021,53.650,-7.141,-18.616
112120101,53.650,-7.141,-18.616
112120112,53.650,-7.141,-14.954
112120122,42.603,1.587,-14.954
112120202,42.603,1.587,-14.954
112120212,35.828,7.751,-15.381
112120222,35.828,7.751,-15.381
112121002,35.828,7.751,-15.381
112121012,34.546,9.583,-19.653
112121022,34.546,9.583,-19.653
112121102,34.546,9.583,-19.653
112121112,37.598,8.972,-22.156
112121122,37.598,8.972,-22.156
112121202,37.598,5.554,-20.935
112121212,43.213,5.554,-20.935
112121222,43.213,5.554,-20.935
112122010,45.166,-0.427,-16.235
112122020,45.166,-0.427,-16.235
112122100,45.166,-0.427,-16.235
112122110,41.321,-8.484,-10.681
112122120,41.321,-8.484,-10.681
112122200,41.321,-8.484,-6.226
112122210,33.630,-16.418,-6.226
112122221,33.630,-16.418,-6.226
112200001,23.926,-20.447,-3.174
112200011,23.926,-20.447,-3.174
112200021,23.926,-20.447,-3.174
112200101,13.794,-18.860,-1.526
112200111,13.794,-18.860,-1.526
112200121,13.794,-3.235,-0.305
112200202,7.080,-11.719,-0.305
112200212,7.080,-11.719,-0.305
112200222,3.723,-3.113,0.732
112201002,3.723,-3.113,0.732
112201012,3.723,-3.113,0.732
112201022,3.601,3.296,3.296
112201102,3.601,3.296,3.296
112201112,3.601,3.296,3.296
112201122,7.996,5.798,4.883
112201202,7.996,5.798,4.883
112201212,7.996,5.798,3.906
112201222,12.512,5.493,3.906
112202002,12.512,5.493,3.906
112202012,17.151,5.249,1.648
112202022,17.151,5.249,1.648
112202102,17.151,5.249,1.648
112202112,24.292,5.310,-0.549
112202122,24.292,5.310,-0.549
112202202,24.292,5.310,-0.549
112202212,31.067,7.324,-1.953
112202222,31.067,7.324,-1.953
112210002,31.067,7.324,-1.038
112210020,31.006,10.010,-1.038
112210100,31.006,10.010,-1.038
112210110,28.564,12.329,1.343
112210120,28.564,12.329,1.343
112210200,28.564,12.329,1.343
112210210,23.193,12.390,5.249
112210220,23.193,12.390,5.249
112211000,23.193,12.390,5.249
112211002,11.963,11.963,11.414
112211012,11.963,11.963,11.414
112211022,11.963,11.963,11.414
112211102,3.723,11.230,17.944
112211112,3.723,11.230,17.944
112211122,3.723,11.230,22.644
112211202,-0.244,10.498,22.644
112211212,-0.244,10.498,22.644
112211222,-0.366,10.986,24.292
112212010,-0.366,10.986,24.292
112212020,-0.366,10.986,24.292
112212100,2.930,14.099,24.414
112212110,2.930,14.099,24.414
112212120,2.930,14.099,24.414
112212200,4.333,18.738,24.048
112212210,4.333,18.738,24.048
112212220,4.333,18.738,24.048
112220000,3.052,24.109,22.461
112220010,3.052,24.109,22.461
112220020,3.052,29.480,18.555
112220022,1.770,29.480,18.555
112220102,1.770,29.480,18.555
112220112,-0.610,32.593,13.489
112220200,-0.610,32.593,13.489
112220210,-0.610,32.593,13.489
112220220,-0.427,32.349,11.536
112221000,-0.427,32.349,11.536
112221010,-0.427,32.349,11.536
112221020,2.197,27.344,14.404
112221100,2.197,27.344,14.404
112221110,2.197,27.344,19.714
112221120,-0.183,20.630,19.714
112221200,-0.183,20.630,19.714
112221210,-1.709,18.005,22.095
112221220,-1.709,18.005,22.095
112222000,-1.709,18.005,22.095
112222010,-0.793,19.714,17.517
112222020,-0.793,19.714,17.517
112222100,-0.793,19.714,17.517
112222110,-1.038,24.109,10.010
112222120,-1.038,24.109,10.010
112222200,-1.038,39.734,1.831
112222210,-0.427,32.471,1.831
112222220,-0.427,32.471,1.831
120000000,-1.343,42.847,-4.944
120000011,-1.343,42.847,-4.944
120000021,-1.343,42.847,-4.944
120000101,-4.944,52.124,-10.132
120000111,-4.944,52.124,-10.132
120000121,-4.944,52.124,-10.132
120000201,-8.118,57.556,-12.268
120000212,-8.118,57.556,-12.268
120000222,-9.155,55.664,-11.719
120001002,-9.155,55.664,-11.719
120001012,-9.155,55.664,-11.719
120001022,-5.859,48.279,-8.423
120001102,-5.859,48.279,-8.423
120001112,-5.859,48.279,-3.174
120001200,0.549,38.330,-3.174
120001210,0.549,38.330,-3.174
120001220,5.676,27.222,3.235
120002000,5.676,27.222,3.235
120002010,5.676,27.222,3.235
120002020,9.827,17.334,9.521
120002100,9.827,17.334,9.521
120002110,9.827,17.334,9.521
120002120,13.489,10.803,13.062
120002200,13.489,10.803,13.062
120002202,13.489,10.803,13.062
120002212,16.296,8.667,14.099
120002222,16.296,8.667,14.099
120010002,16.296,8.667,12.329
120010012,17.273,9.705,12.329
120010022,17.273,9.705,12.329
120010102,18.799,12.146,7.385
120010112,18.799,12.146,7.385
120010122,18.799,12.146,7.385
120010202,21.423,14.648,0.549
120010212,21.423,14.648,0.549
120010222,21.423,14.648,0.549
120011002,23.743,15.503,-5.676
120011020,23.743,15.503,-5.676
120011100,23.743,15.503,-5.676
120011110,24.841,14.893,-11.047
120011120,24.841,14.893,-11.047
120011200,24.292,13.184,-13.855
120011210,24.292,13.184,-13.855
120011220,24.292,13.184,-13.855
120012000,23.315,9.888,-13.306
120012010,23.315,9.888,-13.306
120012020,23.315,9.888,-13.306
120012100,22.034,4.822,-10.010
120012110,22.034,4.822,-10.010
120012120,22.034,-10.803,-4.333
120012201,19.775,-0.183,-4.333
120012211,19.775,-0.183,-4.333
120012221,16.235,-4.639,0.366
120020001,16.235,-4.639,0.366
120020011,16.235,-4.639,0.366
120020021,11.597,-7.202,3.479
120020101,11.597,-7.202,3.479
120020111,11.597,-7.202,3.479
120020121,7.019,-7.690,2.747
120020201,7.019,-7.690,2.747
120020212,4.272,-6.409,-0.977
120020222,4.272,-6.409,-0.977
120021002,4.272,-6.409,-0.977
120021012,2.380,-3.601,-5.249
120021022,2.380,-3.601,-5.249
120021102,2.380,-3.601,-5.249
120021112,1.282,-1.099,-9.827
120021200,1.282,-1.099,-9.827
120021210,1.465,-0.366,-13.428
120021220,1.465,-0.366,-13.428
120022000,1.465,-0.366,-13.428
120022010,2.991,-0.549,-16.296
120022021,2.991,-0.549,-16.296
120022101,2.991,-0.549,-16.296
120022111,3.845,0.061,-18.127
120022121,3.845,0.061,-18.127
120022201,4.211,2.380,-20.447
120022211,4.211,2.380,-20.447
120022221,4.211,2.380,-20.447
120100001,3.174,4.272,-22.278
120100011,3.174,4.272,-22.278
120100021,3.174,4.272,-22.278
120100101,1.221,4.639,-22.766
120100111,1.221,4.639,-22.766
120100122,1.221,2.930,-21.484
120100202,-2.136,2.930,-21.484
120100212,-2.136,2.930,-21.484
120100222,-6.958,0.366,-17.700
120101002,-6.958,0.366,-17.700
120101012,-6.958,0.366,-17.700
120101022,-12.817,-1.404,-14.038
120101110,-12.817,-1.404,-14.038
120101120,-17.883,-4.211,-11.841
120101200,-17.883,-4.211,-11.841
120101210,-17.883,-4.211,-11.841
120101221,-19.958,-7.507,-10.437
120102001,-19.958,-7.507,-10.437
120102011,-19.958,-7.507,-10.437
120102021,-18.738,-11.414,-7.690
120102101,-18.738,-11.414,-7.690
120102112,-14.587,-14.771,-3.540
120102122,-14.587,-14.771,-3.540
120102202,-14.587,-14.771,-3.540
120102220,-9.949,-16.846,2.380
120110000,-9.949,-16.846,2.380
120110010,-9.033,-16.541,10.559
120110020,-9.033,-16.541,10.559
120110100,-9.033,-16.541,10.559
120110110,-13.611,-13.489,17.761
120110120,-13.611,-13.489,17.761
120110201,-13.611,-13.489,17.761
120110211,-21.729,-8.911,20.325
120110221,-21.729,-8.911,20.325
120111001,-29.602,-4.211,17.029
120111011,-29.602,-4.211,17.029
120111021,-29.602,-4.211,17.029
120111102,-36.499,-1.648,11.047
120111112,-36.499,-1.648,11.047
120111122,-36.499,-1.648,11.047
120111202,-41.443,-1.404,5.310
120111212,-41.443,-1.404,5.310
120111222,-39.490,-3.357,1.221
120112010,-39.490,-3.357,1.221
120112020,-39.490,-3.357,1.221
120112100,-29.663,-7.996,-0.122
120112110,-29.663,-7.996,-0.122
120112120,-29.663,-7.996,1.587
120112201,-13.916,-13.062,1.587
120112211,-13.916,-13.062,1.587
120112221,3.235,-17.761,5.188
120120001,3.235,-17.761,5.188
120120011,3.235,-17.761,5.188
120120021,18.494,-22.217,10.132
120120101,18.494,-22.217,10.132
120120111,18.494,-22.217,16.113
120120121,30.334,-23.865,16.113
120120202,30.334,-23.865,16.113
120120212,33.630,-18.433,20.996
120120222,33.630,-18.433,20.996
120121002,33.630,-18.433,20.996
120121012,24.231,-6.897,22.522
120121022,24.231,-6.897,22.522
120121102,24.231,-6.897,22.522
120121112,7.996,6.165,19.409
120121122,7.996,6.165,19.409
120121202,7.996,6.165,12.573
120121212,-7.568,19.104,12.573
120121222,-7.568,19.104,12.573
120122002,-19.165,28.320,7.202
120122012,-19.165,28.320,7.202
120122022,-19.165,28.320,7.202
120122102,-23.010,30.273,9.583
120122112,-23.010,30.273,9.583
120122200,-23.010,30.273,9.583
120122210,-19.226,22.949,21.301
120122220,-19.226,22.949,21.301
120200000,-3.601,7.629,36.987
120200010,-8.606,7.629,36.987
120200020,-8.606,7.629,36.987
120200100,7.690,-10.620,49.622
120200110,7.690,-10.620,49.622
120200120,7.690,-10.620,49.622
120200200,26.062,-25.208,56.152
120200210,26.062,-25.208,56.152
120200221,26.062,-25.208,56.152
120201001,39.490,-27.405,56.396
120201011,39.490,-27.405,56.396
120201021,43.457,-16.296,52.063
120201101,43.457,-16.296,52.063
120201111,43.457,-16.296,52.063
120201121,33.875,2.441,44.739
120201201,33.875,2.441,44.739
120201211,33.875,2.441,44.739
120201221,14.954,21.118,35.645
120202001,14.954,21.118,35.645
120202011,14.954,21.118,35.645
120202021,-3.967,35.034,25.879
120202101,-3.967,35.034,25.879
120202111,-19.531,41.809,19.592
120202121,-19.531,41.809,19.592
120202201,-19.531,41.809,19.592
120202211,-29.541,40.344,18.066
120202221,-29.541,40.344,18.066
120210001,-29.541,40.344,18.066
120210012,-33.142,31.250,19.226
120210022,-33.142,31.250,19.226
120210102,-33.142,31.250,22.156
120210112,-31.311,17.700,22.156
120210122,-31.311,17.700,22.156
120210202,-25.452,5.432,28.442
120210212,-25.452,5.432,28.442
120210222,-25.452,5.432,28.442
120211002,-17.334,-2.686,38.330
120211012,-17.334,-2.686,38.330
120211022,-17.334,-2.686,38.330
120211110,-13.855,-6.470,50.781
120211120,-13.855,-6.470,50.781
120211200,-10.315,-5.615,60.547
120211210,-10.315,-5.615,60.547
120211220,-10.315,-5.615,60.547
120212000,-5.188,0.488,60.303
120212010,-5.188,0.488,60.303
120212021,-5.188,0.488,60.303
120212101,-6.409,7.996,55.847
120212111,-6.409,7.996,55.847
120212121,-12.512,16.602,51.880
120212201,-12.512,16.602,51.880
120212211,-12.512,16.602,51.880
120212221,-22.644,24.353,48.340
120220001,-22.644,24.353,48.340
120220012,-22.644,24.353,48.340
120220022,-37.109,26.917,46.143
120220102,-37.109,26.917,46.143
120220112,-48.279,23.621,42.725
120220122,-48.279,23.621,42.725
120220202,-48.279,23.621,42.725
120220212,-49.011,19.714,37.964
120220222,-49.011,19.714,37.964
120221010,-49.011,19.714,37.964
120221020,-48.706,16.602,37.231
120221100,-48.706,16.602,37.231
120221110,-48.706,0.977,37.842
120221120,-51.331,14.587,37.842
120221200,-51.331,14.587,37.842
120221210,-48.828,14.038,40.405
120221220,-48.828,14.038,40.405
120222000,-48.828,14.038,40.405
120222010,-43.884,9.155,40.039
120222020,-43.884,9.155,40.039
120222100,-43.884,9.155,40.039
120222110,-39.734,3.662,36.194
120222121,-39.734,3.662,36.194
120222201,-34.302,-2.686,31.616
120222211,-34.302,-2.686,31.616
120222221,-34.302,-2.686,31.616
121000001,-28.870,-10.864,26.917
121000011,-28.870,-10.864,26.917
121000021,-28.870,-10.864,26.917
121000102,-24.841,-18.677,21.973
121000112,-24.841,-18.677,21.973
121000122,-22.217,-24.231,16.418
121000202,-22.217,-24.231,16.418
121000212,-22.217,-24.231,16.418
121001000,-21.912,-24.475,10.071
121001010,-21.912,-24.475,10.071
121001020,-21.912,-24.475,10.071
121001100,-26.123,-18.005,5.737
121001110,-26.123,-18.005,5.737
121001120,-34.729,-8.606,2.869
121001201,-34.729,-8.606,2.869
121001211,-34.729,-8.606,2.869
121001221,-38.086,0.732,-8.484
121002001,-38.086,0.732,-8.484
121002011,-38.086,0.732,-21.667
121002021,-38.696,10.376,-21.667
121002101,-38.696,10.376,-21.667
121002112,-32.959,20.081,-31.433
121002122,-32.959,20.081,-31.433
121002202,-32.959,20.081,-31.433
121002212,-23.987,24.719,-37.476
121002222,-23.987,24.719,-37.476
121010002,-23.987,24.719,-40.161
121010020,-17.883,18.799,-40.161
121010100,-17.883,18.799,-40.161
121010110,-10.254,9.338,-41.138
121010120,-10.254,9.338,-41.138
121010200,-10.254,9.338,-41.138
121010210,-0.977,0.977,-40.161
121010221,-0.977,0.977,-40.161
121011001,10.193,-5.371,-38.696
121011011,10.193,-5.371,-38.696
121011021,10.193,-5.371,-38.696
121011101,19.714,-9.521,-36.255
121011112,19.714,-9.521,-36.255
121011122,19.714,-9.521,-36.255
121011202,25.391,-11.292,-33.264
121011212,25.391,-11.292,-33.264
121011222,33.936,-9.705,-38.574
121012002,33.936,-9.705,-38.574
121012020,33.936,-9.705,-38.574
121012100,41.443,-6.714,-48.889
121012110,41.443,-6.714,-48.889
121012120,41.443,-6.714,-48.889
121012200,47.974,-4.578,-57.251
121012211,47.974,-4.578,-57.251
121012221,53.833,-3.601,-61.035
121020001,53.833,-3.601,-61.035
121020011,53.833,-3.601,-61.035
121020021,57.312,-6.042,-60.974
121020101,57.312,-6.042,-60.974
121020112,57.312,-11.414,-56.274
121020122,57.800,-11.414,-56.274
121020202,57.800,-11.414,-56.274
121020212,55.054,-16.602,-46.631
121020222,55.054,-16.602,-46.631
121021002,55.054,-16.602,-46.631
121021020,48.828,-17.151,-36.438
121021100,48.828,-17.151,-36.438
121021110,33.203,-11.963,-29.114
121021120,35.950,-11.963,-29.114
121021200,35.950,-11.963,-29.114
121021211,21.912,-4.150,-26.855
121021221,21.912,-4.150,-26.855
121022001,21.912,-4.150,-26.855
121022011,12.146,2.380,-27.527
121022021,12.146,2.380,-27.527
121022101,9.705,5.493,-28.320
121022111,9.705,5.493,-28.320
121022121,9.705,5.493,-28.320
121022202,11.963,5.371,-29.175
121022212,11.963,5.371,-29.175
121022222,11.963,5.371,-29.175
121100002,13.794,3.357,-28.870
121100012,13.794,3.357,-28.870
121100022,13.794,3.357,-25.940
121100102,14.160,0.305,-25.940
121100112,14.160,0.305,-25.940
121100122,17.395,-2.014,-20.752
121100202,17.395,-2.014,-20.752
121100212,17.395,-2.014,-20.752
121101000,19.836,-4.639,-12.878
121101010,19.836,-4.639,-12.878
121101020,19.836,-4.639,-3.418
121101100,17.090,-7.568,-3.418
121101110,17.090,-7.568,-3.418
121101121,7.324,-9.949,3.174
121101201,7.324,-9.949,3.174
121101211,7.324,-9.949,3.174
121101221,-5.676,-10.620,6.104
121102001,-5.676,-10.620,6.104
121102011,-21.301,-7.080,6.165
121102022,-16.052,-7.080,6.165
121102102,-16.052,-7.080,6.165
121102112,-20.020,-0.305,5.432
121102122,-20.020,-0.305,5.432
121102202,-20.020,-0.305,5.432
121102212,-12.817,8.240,4.578
121102222,-12.817,8.240,4.578
121110002,-12.817,14.465,6.226
121110020,-5.005,14.465,6.226
121110100,-5.005,14.465,6.226
121110110,1.038,18.860,8.423
121110120,1.038,18.860,8.423
121110200,1.038,18.860,8.423
121110210,8.545,22.095,9.583
121110220,8.545,22.095,9.583
121111000,8.545,22.095,9.583
121111010,13.977,21.973,12.390
121111020,13.977,21.973,12.390
121111100,13.977,21.973,17.883
121111110,10.315,18.188,17.883
121111120,10.315,18.188,17.883
121111200,7.080,14.893,22.034
121111210,7.080,14.893,22.034
121111220,7.080,14.893,22.034
121112000,5.310,14.160,22.949
121112010,5.310,14.160,22.949
121112020,5.310,14.160,22.949
121112100,1.099,13.062,25.513
121112110,1.099,13.062,25.513
121112120,1.099,13.062,25.513
121112200,-5.859,9.399,31.555
121112210,-5.859,9.399,31.555
121112220,-8.362,5.737,37.781
121120000,-8.362,5.737,37.781
121120010,-8.362,5.737,37.781
121120020,-8.057,2.808,41.870
121120100,-8.057,2.808,41.870
121120111,-8.057,2.808,41.870
121120121,-7.812,3.113,43.091
121120201,-7.812,3.113,43.091
121120211,-7.812,7.935,39.185
121120221,-6.775,7.935,39.185
121121001,-6.775,7.935,39.185
121121011,-4.944,14.465,30.762
121121021,-4.944,14.465,30.762
121121101,-4.944,14.465,30.762
121121112,-6.531,20.569,20.752
121121122,-6.531,20.569,20.752
121121202,-6.531,20.569,20.752
121121212,-8.667,27.344,10.925
121121222,-8.667,27.344,10.925
121122002,-7.874,31.921,0.305
121122012,-7.874,31.921,0.305
121122022,-7.874,31.921,0.305
121122102,-6.226,32.959,-8.240
121122112,-6.226,32.959,-8.240
121122200,-6.226,32.959,-8.240
121122210,-4.578,33.630,-12.695
121122220,-4.578,33.630,-12.695
121200000,-1.770,34.302,-10.559
121200011,-1.770,34.302,-10.559
121200021,-1.770,34.302,-10.559
121200101,3.479,31.799,-3.540
121200111,3.479,31.799,-3.540
121200121,3.479,31.799,12.085
121200201,6.348,24.170,4.700
121200211,6.348,24.170,4.700
121200221,5.432,14.771,12.268
121201001,5.432,14.771,12.268
121201011,5.432,14.771,12.268
121201021,4.822,7.507,14.343
121201101,4.822,7.507,14.343
121201111,4.822,7.507,14.343
121201121,6.226,2.869,10.681
121201201,6.226,2.869,10.681
121201211,6.226,2.869,10.681
121201221,8.850,-0.061,3.723
121202001,8.850,-0.061,3.723
121202011,8.850,-0.061,-3.418
121202021,13.672,-0.305,-3.418
121202101,13.672,-0.305,-3.418
121202112,19.226,0.488,-10.681
121202122,19.226,0.488,-10.681
121202202,19.226,0.488,-10.681
121202212,24.292,0.000,-17.090
121202222,24.292,0.000,-17.090
121210002,24.292,0.000,-21.606
121210012,28.503,-1.465,-21.606
121210022,28.503,-1.465,-21.606
121210110,31.433,-2.869,-23.987
121210120,31.433,-2.869,-23.987
121210200,31.433,-2.869,-23.987
121210210,32.959,-4.089,-25.269
121210220,32.959,-4.089,-25.269
121211000,32.959,-4.089,-27.222
121211011,33.569,-5.737,-27.222
121211021,33.569,-5.737,-27.222
121211101,34.241,-7.263,-29.358
121211111,34.241,-7.263,-29.358
121211121,34.241,-7.263,-29.358
121211201,34.851,-7.874,-31.250
121211212,34.851,-7.874,-31.250
121211222,34.302,-8.545,-31.555
121212002,34.302,-8.545,-31.555
121212012,34.302,-8.545,-31.555
121212022,34.058,-8.911,-29.968
121212110,34.058,-8.911,-29.968
121212120,34.058,-8.911,-29.968
121212200,33.508,-8.606,-27.832
121212210,33.508,-8.606,-27.832
121212220,31.616,-7.935,-26.245
121220000,31.616,-7.935,-26.245
121220011,31.616,-7.935,-26.245
121220021,30.029,-7.751,-24.109
121220101,30.029,-7.751,-24.109
121220111,30.029,-7.751,-24.109
121220122,30.151,-9.705,-22.034
121220202,30.151,-9.705,-22.034
121220212,30.212,-13.367,-19.653
121220222,30.212,-13.367,-19.653
121221002,30.212,-13.367,-19.653
121221012,29.053,-17.456,-16.418
121221100,29.053,-17.456,-16.418
121221110,29.053,-21.118,-13.000
121221120,26.978,-21.118,-13.000
121221200,26.978,-21.118,-13.000
121221211,23.132,-22.461,-10.742
121221221,23.132,-22.461,-10.742
121222001,23.132,-22.461,-10.742
121222011,17.578,-20.874,-10.925
121222021,17.578,-20.874,-10.925
121222101,10.376,-17.151,-12.878
121222112,10.376,-17.151,-12.878
121222122,10.376,-17.151,-12.878
121222202,3.296,-12.939,-16.541
121222212,3.296,-12.939,-16.541
121222222,3.296,-12.939,-21.545
122000010,-3.113,-7.996,-21.545
122000020,-3.113,-7.996,-21.545
122000100,-7.751,-2.747,-24.963
122000110,-7.751,-2.747,-24.963
122000121,-7.751,-2.747,-24.963
122000201,-9.338,0.549,-24.109
122000211,-9.338,0.549,-24.109
122000221,-7.935,-0.977,-18.433
122001002,-7.935,-0.977,-18.433
122001012,-7.935,-0.977,-18.433
122001022,-4.944,-7.690,-9.460
122001102,-4.944,-7.690,-9.460
122001120,-4.944,-17.639,0.000
122001200,-1.770,-17.639,0.000
122001210,-1.770,-17.639,0.000
122001220,-0.916,-24.902,10.315
122002000,-0.916,-24.902,10.315
122002011,-0.916,-24.902,10.315
122002021,-3.845,-26.367,20.813
122002101,-3.845,-26.367,20.813
122002111,-10.986,-23.743,30.334
122002121,-10.986,-23.743,30.334
122002201,-10.986,-23.743,30.334
122002212,-21.057,-19.714,35.889
122002222,-21.057,-19.714,35.889
122010002,-21.057,-19.714,35.889
122010012,-31.677,-15.381,35.339
122010022,-31.677,-15.381,35.339
122010102,-42.908,-10.986,29.907
122010120,-42.908,-10.986,29.907
122010200,-42.908,-10.986,29.907
122010210,-51.147,-6.287,20.203
122010220,-51.147,-6.287,20.203
122011000,-51.147,-6.287,7.202
122011011,-50.903,-3.235,7.202
122011021,-50.903,-3.235,7.202
122011101,-40.100,-0.549,-3.784
122011111,-40.100,-0.549,-3.784
122011121,-40.100,-0.549,-3.784
122011202,-21.240,3.052,-10.498
122011212,-21.240,3.052,-10.498
122011222,-0.244,4.272,-10.437
122012002,-0.244,4.272,-10.437
122012012,-0.244,4.272,-10.437
122012100,20.447,1.221,-2.136
122012110,20.447,1.221,-2.136
122012120,20.447,1.221,-2.136
122012200,36.682,-2.869,11.414
122012210,36.682,-2.869,11.414
122012220,41.199,-4.211,25.696
122020000,41.199,-4.211,25.696
122020010,41.199,-4.211,25.696
122020020,29.297,0.549,33.875
122020100,29.297,0.549,33.875
122020110,29.297,0.549,33.875
122020120,8.240,9.399,33.386
122020200,8.240,9.399,33.386
122020210,8.240,9.399,33.386
122020220,-10.742,18.738,26.123
122021001,-10.742,18.738,26.123
122021011,-23.987,24.597,16.907
122021021,-23.987,24.597,16.907
122021101,-23.987,24.597,16.907
122021111,-29.785,23.743,10.437
122021121,-29.785,23.743,10.437
122021201,-29.785,23.743,10.437
122021211,-25.757,13.672,6.592
122021221,-25.757,13.672,6.592
122022001,-10.132,-1.892,5.615
122022012,-12.390,-1.892,5.615
122022022,-12.390,-1.892,5.615
122022102,2.869,-13.489,10.437
122022112,2.869,-13.489,10.437
122022122,2.869,-13.489,10.437
122022202,15.320,-14.832,21.851
122022220,15.320,-14.832,21.851
122100000,21.484,-7.874,37.048
122100010,21.484,-7.874,37.048
122100020,21.484,-7.874,37.048
122100100,21.423,0.793,49.744
122100110,21.423,0.793,49.744
122100120,21.423,0.793,49.744
122100200,14.709,7.935,55.237
122100210,14.709,7.935,55.237
122100220,14.709,7.935,55.237
122101000,1.709,14.282,53.040
122101010,1.709,14.282,53.040
122101020,1.709,24.780,44.556
122101100,-16.968,24.780,44.556
122101110,-16.968,24.780,44.556
122101120,-41.382,40.039,30.701
122101200,-41.382,40.039,30.701
122101211,-41.382,40.039,30.701
122101221,-63.477,55.176,15.564
122102001,-63.477,55.176,15.564
122102011,-63.477,55.176,15.564
122102021,-76.904,62.256,4.150
122102101,-76.904,62.256,4.150
122102111,-84.961,55.664,0.854
122102121,-84.961,55.664,0.854
122102201,-84.961,55.664,0.854
122102211,-75.684,33.569,-2.136
122102222,-75.684,33.569,-2.136
122110002,-75.684,33.569,-2.136
122110012,-52.429,15.137,-9.644
122110022,-52.429,15.137,-9.644
122110102,-40.955,-1.282,-8.179
122110112,-40.955,-1.282,-8.179
122110200,-40.955,-1.282,-8.179
122110210,-43.213,-7.446,-1.709
122110220,-43.213,-7.446,-1.709
122111001,-40.527,-7.019,5.737
122111011,-40.527,-7.019,5.737
122111021,-40.527,-7.019,5.737
122111101,-34.851,0.427,11.475
122111111,-34.851,0.427,11.475
122111122,-34.851,0.427,11.475
122111202,-34.363,7.507,24.780
122111212,-34.363,7.507,24.780
122111222,-21.362,14.709,47.180
122112002,-21.362,14.709,47.180
122112012,-21.362,14.709,47.180
122112022,-19.043,15.869,66.833
122112102,-19.043,15.869,66.833
122112112,-19.043,15.869,66.833
122112122,-11.169,16.785,68.481
122112210,-11.169,16.785,68.481
122112220,-11.169,19.287,60.547
122120000,-4.639,19.287,60.547
122120010,-4.639,19.287,60.547
122120020,-5.676,21.301,51.514
122120100,-5.676,21.301,51.514
122120110,-5.676,21.301,51.514
122120120,-10.071,23.682,39.063
122120200,-10.071,23.682,39.063
122120210,-10.071,23.682,23.437
122120221,-12.451,25.269,25.757
122121001,-12.451,25.269,25.757
122121011,-11.108,25.391,16.052
122121021,-11.108,25.391,16.052
122121101,-11.108,25.391,16.052
122121111,-3.479,22.766,7.080
122121121,-3.479,22.766,7.080
122121201,-3.479,22.766,7.080
122121211,-2.136,12.756,5.127
122121221,-2.136,12.756,5.127
122122001,13.489,2.075,10.254
122122012,0.366,2.075,10.254
122122022,0.366,2.075,10.254
122122101,3.784,-7.080,13.794
122122112,3.784,-7.080,13.794
122122122,3.784,-7.080,13.794
122122202,6.470,-15.991,17.700
122122212,6.470,-15.991,17.700
122122222,6.470,-15.991,17.700
122200002,7.019,-23.804,21.851
122200012,7.019,-23.804,21.851
122200022,6.165,-27.527,24.353
122200102,6.165,-27.527,24.353
122200112,6.165,-27.527,24.353
122200200,1.831,-31.555,24.597
122200210,1.831,-31.555,24.597
122200220,1.831,-31.555,24.597
122201000,-2.014,-35.583,23.743
122201010,-2.014,-35.583,23.743
122201020,-3.784,-38.757,21.729
122201100,-3.784,-38.757,21.729
122201111,-3.784,-38.757,21.729
122201121,-4.944,-40.710,18.311
122201201,-4.944,-40.710,18.311
122201211,-4.944,-40.710,18.311
122201221,-3.479,-40.527,12.512
122202002,-3.479,-40.527,12.512
122202012,0.427,-36.926,4.700
122202022,0.427,-36.926,4.700
122202102,0.427,-36.926,4.700
122202112,4.639,-29.907,-4.456
122202122,4.639,-29.907,-4.456
122202210,4.639,-29.907,-4.456
122202220,8.484,-18.311,-14.893
122210000,8.484,-18.311,-14.893
122210010,11.780,-4.150,-25.696
122210020,11.780,-4.150,-25.696
122210101,11.780,-4.150,-25.696
122210111,15.137,9.033,-34.668
122210121,15.137,9.033,-34.668
122210201,15.137,16.357,-39.551
122210211,18.677,16.357,-39.551
122210221,18.677,16.357,-39.551
122211001,23.376,16.052,-39.612
122211012,23.376,16.052,-39.612
122211022,23.376,16.052,-39.612
122211102,30.884,8.850,-35.767
122211112,30.884,8.850,-35.767
122211122,30.884,8.850,-28.015
122211202,40.222,-4.150,-28.015
122211212,40.222,-4.150,-28.015
122211222,47.485,-20.691,-17.151
122212010,47.485,-20.691,-17.151
122212020,47.485,-20.691,-17.151
122212100,52.124,-36.072,-7.019
122212110,52.124,-36.072,-7.019
122212120,52.124,-41.992,-1.404
122212201,52.063,-41.992,-1.404
122212211,52.063,-41.992,-1.404
122212221,42.664,-34.729,0.488
122220001,42.664,-34.729,0.488
122220011,42.664,-34.729,0.488
122220021,28.809,-18.921,-3.845
122220101,28.809,-18.921,-3.845
122220111,13.184,-3.296,-14.221
122220122,14.465,-3.296,-14.221
122220202,14.465,-3.296,-14.221
122220212,4.028,6.775,-23.987
122220222,4.028,6.775,-23.987
122221002,4.028,6.775,-23.987
122221012,0.671,8.240,-32.654
122221022,0.671,8.240,-32.654
122221110,0.671,2.991,-39.612
122221120,4.944,2.991,-39.612
122221200,4.944,2.991,-39.612
122221210,13.977,-6.226,-41.931
122221220,13.977,-6.226,-41.931
122222000,13.977,-6.226,-41.931
122222010,22.888,-15.198,-37.720
122222021,22.888,-15.198,-37.720
122222101,22.888,-20.508,-28.809
122222111,30.640,-20.508,-28.809
122222121,30.640,-20.508,-28.809
122222201,32.776,-21.606,-18.555
122222212,32.776,-21.606,-18.555
122222222,32.776,-21.606,-18.555
200000002,26.978,-19.653,-11.169
200000012,26.978,-19.653,-11.169
200000022,16.907,-14.587,-7.874
200000110,16.907,-14.587,-7.874
200000120,16.907,-14.587,-7.874
200000200,6.165,-9.155,-7.812
200000210,6.165,-9.155,-7.812
200000220,6.165,-9.155,-10.254
200001001,-1.526,-4.272,-10.254
200001011,-1.526,-4.272,-10.254
200001021,-5.981,-2.014,-11.902
200001102,-5.981,-2.014,-11.902
200001112,-5.981,-2.014,-11.902
200001122,-7.263,-3.784,-12.756
200001202,-7.263,-3.784,-12.756
200001220,-3.967,-4.578,-13.977
200002000,-3.967,-4.578,-13.977
200002010,-3.967,-4.578,-13.977
200002021,0.061,-2.686,-12.451
200002101,0.061,-2.686,-12.451
200002111,4.944,1.892,-9.399
200002121,4.944,1.892,-9.399
200002201,4.944,1.892,-9.399
200002211,8.789,4.883,-4.822
200002221,8.789,4.883,-4.822
200010001,8.789,4.883,-4.822
200010011,12.573,6.531,-0.977
200010021,12.573,6.531,-0.977
200010102,12.573,7.446,3.357
200010112,14.282,7.446,3.357
200010122,14.282,7.446,3.357
200010202,13.245,4.517,8.423
200010212,13.245,4.517,8.423
200010222,13.245,4.517,8.423
200011002,7.202,-0.122,13.550
200011012,7.202,-0.122,13.550
200011022,7.202,-0.122,13.550
200011102,-0.305,-2.747,17.761
200011112,-0.305,-2.747,17.761
200011122,0.732,-2.686,18.799
200011202,0.732,-2.686,18.799
200011220,0.732,-2.686,18.799
200012000,2.258,-3.845,17.822
200012010,2.258,-3.845,17.822
200012020,2.258,-3.845,17.822
200012100,2.747,-4.089,15.930
200012110,2.747,-4.089,15.930
200012120,2.747,-4.089,11.658
200012200,2.747,-2.258,11.658
200012210,2.747,-2.258,11.658
200012220,-0.610,3.479,6.104
200020001,-0.610,3.479,6.104
200020011,-0.610,3.479,6.104
200020021,-7.874,17.029,5.066
200020101,-7.874,17.029,5.066
200020111,-7.874,17.029,5.066
200020121,-11.902,29.785,7.874
200020201,-11.902,29.785,7.874
200020211,-12.756,29.541,12.634
200020221,-12.756,29.541,12.634
200021002,-12.756,29.541,12.634
200021012,-11.902,18.860,17.578
200021022,-11.902,18.860,17.578
200021102,-11.902,18.860,17.578
200021112,-10.437,7.996,20.081
200021122,-10.437,7.996,20.081
200021202,-7.324,2.502,19.714
200021212,-7.324,2.502,19.714
200021222,-7.324,2.502,19.714
200022010,-3.540,0.183,18.921
200022020,-3.540,0.183,18.921
200022100,-3.540,0.183,18.921
200022110,-4.089,-1.404,16.541
200022120,-4.089,-1.404,16.541
200022200,-7.202,1.343,12.207
200022210,-7.202,1.343,12.207
200022220,-7.202,1.343,12.207
200100001,-10.925,10.071,6.104
200100011,-10.925,10.071,6.104
200100021,-10.925,10.071,6.104
200100101,-13.611,19.287,0.427
200100111,-13.611,19.287,0.427
200100121,-13.611,19.287,-2.625
200100201,-14.465,25.269,-2.625
200100211,-14.465,25.269,-2.625
200100222,-15.320,29.053,-4.150
200101002,-15.320,29.053,-4.150
200101012,-15.320,29.053,-4.150
200101022,-15.076,32.166,-4.761
200101102,-15.076,32.166,-4.761
200101112,-15.076,33.447,-4.883
200101200,-13.550,33.447,-4.883
200101210,-13.550,33.447,-4.883
200101220,-9.521,29.053,-3.662
200102000,-9.521,29.053,-3.662
200102011,-9.521,29.053,-3.662
200102021,-2.563,19.653,-0.183
200102101,-2.563,19.653,-0.183
200102111,2.869,9.033,5.920
200102121,2.869,9.033,5.920
200102201,2.869,9.033,5.920
200102211,4.761,1.953,9.583
200102221,4.761,1.953,9.583
200110001,4.761,1.953,9.583
200110011,3.906,-1.221,9.033
200110021,3.906,-1.221,9.033
200110101,3.906,-1.221,4.517
200110111,2.380,-2.563,4.517
200110122,2.380,-2.563,4.517
200110202,2.808,-1.831,-2.686
200110212,2.808,-1.831,-2.686
200110222,2.808,-1.831,-2.686
200111002,6.958,1.038,-10.437
200111012,6.958,1.038,-10.437
200111022,6.958,1.038,-26.062
200111110,14.038,3.296,-16.235
200111120,14.038,3.296,-16.235
200111200,20.996,4.333,-18.372
200111210,20.996,4.333,-18.372
200111220,20.996,4.333,-18.372
200112000,25.208,3.540,-17.883
200112010,25.208,3.540,-17.883
200112020,25.208,3.540,-17.883
200112100,25.940,2.136,-15.442
200112110,25.940,2.136,-15.442
200112121,25.024,0.732,-13.428
200112201,25.024,0.732,-13.428
200112211,25.024,0.732,-13.428
200112221,22.217,-0.549,-12.634
200120001,22.217,-0.549,-12.634
200120011,22.217,-0.549,-12.634
200120021,18.616,-1.465,-12.573
200120102,18.616,-1.465,-12.573
200120112,14.771,-2.686,-11.902
200120122,14.771,-2.686,-11.902
200120202,14.771,-2.686,-11.902
200120212,11.475,-3.967,-10.437
200121000,11.475,-3.967,-10.437
200121010,11.475,-3.967,-10.437
200121020,8.850,-4.578,-8.728
200121100,8.850,-4.578,-8.728
200121110,7.080,-5.127,-7.629
200121121,7.080,-5.127,-7.629
200121201,7.080,-5.127,-7.629
200121211,5.798,-4.272,-8.423
200121221,5.798,-4.272,-8.423
200122001,5.798,-1.587,-11.414
200122011,5.127,-1.587,-11.414
200122022,5.127,-1.587,-11.414
200122102,5.371,2.319,-15.259
200122112,5.371,2.319,-15.259
200122122,5.371,2.319,-15.259
200122202,6.592,5.615,-18.127
200122212,6.592,5.615,-18.127
200122222,6.592,5.615,-18.372
200200010,8.850,6.714,-18.372
200200020,8.850,6.714,-18.372
200200100,10.559,4.944,-16.174
200200110,10.559,4.944,-16.174
200200120,10.559,4.944,-16.174
200200200,10.498,2.136,-11.902
200200210,10.498,2.136,-11.902
200200220,10.498,2.136,-11.902
200201000,8.057,-0.305,-6.287
200201011,8.057,-0.305,-6.287
200201021,2.258,-1.526,-1.953
200201101,2.258,-1.526,-1.953
200201111,2.258,-1.526,-1.953
200201121,-7.019,-1.160,2.380
200201202,-7.019,-1.160,2.380
200201212,-7.019,1.709,5.371
200201222,-18.250,1.709,5.371
200202002,-18.250,1.709,5.371
200202012,-29.602,6.226,5.798
200202022,-29.602,6.226,5.798
200202102,-29.602,6.226,5.798
200202112,-37.109,11.230,5.310
200202122,-37.109,11.230,5.310
200202210,-37.109,11.230,3.845
200202220,-38.330,11.963,3.845
200210000,-38.330,11.963,3.845
200210010,-31.555,6.348,0.366
200210020,-31.555,6.348,0.366
200210100,-31.555,6.348,0.366
200210110,-17.395,0.793,-4.333
200210120,-17.395,0.793,-4.333
200210201,-17.395,0.793,-10.193
200210211,-0.671,0.610,-10.193
200210221,-0.671,0.610,-10.193
200211001,14.893,2.930,-13.062
200211011,14.893,2.930,-13.062
200211021,14.893,2.930,-13.062
200211102,27.649,3.906,-10.864
200211112,27.649,3.906,-10.864
200211122,27.649,3.906,-10.864
200211202,34.973,2.319,-5.188
200211212,34.973,2.319,-5.188
200211222,32.410,1.953,0.793
200212002,32.410,1.953,0.793
200212012,32.410,1.953,0.793
200212022,17.883,5.859,5.005
200212102,17.883,5.859,5.005
200212112,17.883,5.859,5.005
200212122,-2.869,13.794,5.188
200212202,-2.869,13.794,5.188
200212212,-2.869,13.794,5.188
200212222,-22.766,23.132,3.418
200220002,-22.766,23.132,3.418
200220020,-37.537,29.236,3.723
200220100,-37.537,29.236,3.723
200220110,-37.537,29.236,3.723
200220120,-42.175,28.870,10.864
200220200,-42.175,28.870,10.864
200220210,-42.175,28.870,10.864
200220220,-30.701,20.081,23.499
200221000,-30.701,20.081,23.499
200221010,-7.263,4.944,37.292
200221021,-7.263,4.944,37.292
200221101,-7.263,4.944,37.292
200221111,19.653,-9.705,48.279
200221121,19.653,-9.705,48.279
200221201,19.653,-9.705,48.279
200221211,43.823,-18.799,53.833
200221221,43.823,-18.799,53.833
200222001,60.364,-19.714,53.894
200222011,60.364,-19.714,53.894
200222022,60.364,-19.714,53.894
200222102,64.148,-12.756,48.096
200222112,64.148,-12.756,48.096
200222122,64.148,-12.756,48.096
200222202,52.124,0.244,38.086
200222212,52.124,0.244,38.086
200222222,52.124,0.244,22.461
201000002,27.832,18.982,23.804
201000012,27.832,18.982,23.804
201000022,1.038,39.307,6.592
201000102,1.038,39.307,6.592
201000112,1.038,39.307,6.592
201000122,-19.226,53.467,-6.104
201000202,-19.226,53.467,-6.104
201000212,-19.226,53.467,-6.104
201001000,-26.917,54.626,-10.071
201001010,-26.917,54.626,-10.071
201001020,-26.917,41.443,-4.150
201001100,-21.118,41.443,-4.150
201001110,-21.118,41.443,-4.150
201001120,-7.080,19.104,8.667
201001200,-7.080,19.104,8.667
201001210,-7.080,19.104,8.667
201001221,9.644,-5.920,25.024
201002001,9.644,-5.920,25.024
201002011,9.644,-5.920,25.024
201002021,27.588,-27.527,37.903
201002101,27.588,-27.527,37.903
201002111,42.847,-39.978,43.823
201002121,42.847,-39.978,43.823
201002201,42.847,-39.978,43.823
201002211,53.894,-42.542,42.908
201002221,53.894,-42.542,42.908
201010001,53.894,-42.542,42.908
201010011,60.852,-36.438,35.767
201010021,60.852,-36.438,35.767
201010102,60.852,-28.931,29.236
201010112,57.129,-28.931,29.236
201010122,57.129,-28.931,29.236
201010202,40.466,-25.879,24.780
201010212,40.466,-25.879,24.780
201010222,40.466,-25.879,24.780
201011002,23.743,-24.353,14.526
201011012,23.743,-24.353,14.526
201011022,23.743,-24.353,0.244
201011110,6.775,-23.865,0.244
201011120,6.775,-23.865,0.244
201011200,-9.094,-24.414,-13.977
201011210,-9.094,-24.414,-13.977
201011220,-9.094,-24.414,-13.977
201012001,-24.841,-24.658,-27.039
201012011,-24.841,-24.658,-27.039
201012021,-38.025,-21.423,-34.851
201012101,-38.025,-21.423,-34.851
201012112,-38.025,-21.423,-34.851
201012122,-47.180,-9.888,-31.860
201012202,-47.180,-9.888,-31.860
201012220,-47.180,5.737,-13.489
201020000,-52.429,5.737,-13.489
201020010,-52.429,5.737,-13.489
201020020,-52.002,20.630,12.634
201020100,-52.002,20.630,12.634
201020110,-52.002,20.630,12.634
201020120,-49.194,26.184,37.659
201020201,-49.194,26.184,37.659
201020211,-49.194,20.874,53.894
201020221,-50.903,20.874,53.894
201021001,-50.903,20.874,53.894
201021011,-52.490,14.221,59.509
201021021,-52.490,14.221,59.509
201021101,-52.490,14.221,59.509
201021111,-47.241,13.184,54.626
201021121,-47.241,13.184,54.626
201021201,-47.241,13.184,54.626
201021211,-43.396,13.428,41.138
201021222,-43.396,13.428,41.138
201022002,-43.091,10.254,26.428
201022012,-43.091,10.254,26.428
201022022,-43.091,10.254,26.428
201022102,-40.039,7.019,13.916
201022112,-40.039,7.019,13.916
201022122,-40.039,7.019,13.916
201022202,-36.011,3.662,7.263
201022212,-36.011,3.662,7.263
201100000,-27.710,0.061,2.014
201100010,-27.710,0.061,2.014
201100020,-27.710,0.061,2.014
201100100,-18.372,-3.296,-0.854
201100110,-18.372,-3.296,-0.854
201100120,-18.372,-3.296,-0.854
201100201,-10.681,-4.883,-1.953
201100211,-10.681,-4.883,-1.953
201100221,-6.470,-6.897,-4.639
201101002,-6.470,-6.897,-4.639
201101012,-6.470,-6.897,-4.639
201101022,-4.150,-10.925,-9.094
201101102,-4.150,-10.925,-9.094
201101120,-3.601,-15.869,-13.306
201101200,-3.601,-15.869,-13.306
201101210,-3.601,-15.869,-13.306
201101221,-4.944,-20.020,-18.066
201102001,-4.944,-20.020,-18.066
201102011,-4.944,-23.132,-23.804
201102021,-6.836,-23.132,-23.804
201102102,-6.836,-23.132,-23.804
201102112,-7.874,-24.841,-26.611
201102122,-7.874,-24.841,-26.611
201102210,-7.874,-24.841,-24.902
201102220,-6.958,-28.809,-24.902
201110000,-6.958,-28.809,-24.902
201110011,-4.944,-37.659,-19.653
201110021,-4.944,-37.659,-19.653
201110101,-4.944,-37.659,-19.653
201110111,-1.953,-49.622,-14.709
201110122,-1.953,-49.622,-14.709
201110202,1.282,-61.768,-13.306
201110212,1.282,-61.768,-13.306
201110222,1.282,-61.768,-13.306
201111010,5.737,-72.510,-16.479
201111020,5.737,-72.510,-16.479
201111100,11.658,-80.078,-24.170
201111110,11.658,-80.078,-24.170
201111121,11.658,-80.078,-24.170
201111201,15.320,-82.764,-35.461
201111211,15.320,-82.764,-35.461
201111221,15.320,-82.764,-51.086
201112001,14.282,-79.163,-48.889
201112011,14.282,-79.163,-48.889
201112022,9.705,-70.557,-64.697
201112102,9.705,-70.557,-64.697
201112112,9.705,-70.557,-64.697
201112122,3.906,-59.570,-81.787
201112202,3.906,-59.570,-81.787
201112220,-11.719,-47.485,-96.741
201120000,-2.808,-47.485,-96.741
201120010,-2.808,-47.485,-96.741
201120020,-10.986,-32.776,-105.286
201120101,-10.986,-32.776,-105.286
201120111,-10.986,-32.776,-105.042
201120121,-19.104,-16.602,-105.042
201120202,-19.104,-16.602,-105.042
201120212,-24.597,-4.150,-98.694
201120222,-24.597,-4.150,-98.694
201121010,-24.597,-4.150,-98.694
201121020,-26.672,-0.061,-88.989
201121100,-26.672,-0.061,-88.989
201121110,-25.818,-5.737,-76.660
201121121,-25.818,-5.737,-76.660
201121201,-25.818,-5.737,-76.660
201121211,-20.386,-18.738,-62.988
201121222,-20.386,-18.738,-62.988
201122002,-12.329,-36.072,-50.781
201122012,-12.329,-36.072,-50.781
201122100,-12.329,-36.072,-50.781
201122110,-5.127,-52.002,-40.466
201122120,-5.127,-52.002,-40.466
201122200,-0.183,-62.012,-33.936
201122211,-0.183,-62.012,-33.936
201122221,-0.183,-62.012,-33.936
201200001,2.014,-64.819,-32.532
201200011,2.014,-64.819,-32.532
201200021,2.014,-64.819,-35.706
201200102,0.854,-60.791,-35.706
201200112,0.854,-60.791,-35.706
201200122,-1.648,-50.903,-42.053
201200202,-1.648,-50.903,-42.053
201200220,-1.648,-50.903,-42.053
201201000,-6.958,-36.377,-47.424
201201010,-6.958,-36.377,-47.424
201201020,-14.648,-17.761,-50.049
201201101,-14.648,-17.761,-50.049
201201111,-14.648,-17.761,-50.049
201201121,-21.301,0.732,-51.208
201201201,-21.301,0.732,-51.208
201201212,-21.301,12.329,-49.622
201201222,-23.010,12.329,-49.622
201202002,-23.010,12.329,-49.622
201202012,-19.104,13.062,-44.556
201202022,-19.104,13.062,-44.556
201202110,-19.104,13.062,-44.556
201202120,-12.024,5.615,-35.156
201202200,-12.024,5.615,-35.156
201202210,-6.165,-5.432,-22.034
201202220,-6.165,-5.432,-22.034
201210001,-6.165,-5.432,-22.034
201210011,-2.075,-17.761,-9.827
201210021,-2.075,-17.761,-9.827
201210101,-2.075,-33.386,-1.831
201210112,-1.282,-33.142,-1.831
201210122,-1.282,-33.142,-1.831
201210202,-0.305,-46.509,2.991
201210212,-0.305,-46.509,2.991
201211000,-0.305,-46.509,2.991
201211010,0.244,-57.007,4.517
201211020,0.244,-57.007,4.517
201211100,0.488,-60.730,2.014
201211110,0.488,-60.730,2.014
201211120,0.488,-60.730,2.014
201211200,-0.610,-54.016,-3.906
201211210,-0.610,-54.016,-3.906
201211220,-0.610,-54.016,-3.906
201212001,-5.371,-38.025,-11.658
201212011,-5.371,-38.025,-11.658
201212021,-11.230,-15.930,-17.517
201212101,-11.230,-15.930,-17.517
201212112,-11.230,-15.930,-17.517
201212122,-16.724,9.216,-20.691
201212202,-16.724,9.216,-20.691
201212212,-16.724,9.216,-20.691
201212222,-20.813,32.715,-21.179
201220002,-20.813,32.715,-21.179
201220020,-21.729,46.631,-17.639
201220100,-21.729,46.631,-17.639
201220110,-21.729,46.631,-17.639
201220120,-20.020,47.852,-9.277
201220200,-20.020,47.852,-9.277
201220211,-20.020,41.687,1.465
201220221,-17.151,41.687,1.465
201221001,-17.151,41.687,1.465
201221011,-13.245,32.166,12.512
201221021,-13.245,32.166,12.512
201221101,-13.245,32.166,12.512
201221111,-8.118,22.644,21.301
201221121,-8.118,22.644,21.301
201221202,-8.118,22.644,29.358
201221212,-2.441,15.991,29.358
201221222,-2.441,15.991,29.358
201222002,0.061,14.038,38.452
201222012,0.061,14.038,38.452
201222022,0.061,14.038,38.452
201222102,-0.488,17.334,44.922
201222112,-0.488,17.334,44.922
201222122,-0.488,17.334,44.922
201222202,-2.686,23.682,46.265
201222212,-2.686,23.682,46.265
202000000,-4.639,30.029,42.358
202000010,-4.639,30.029,42.358
202000020,-4.639,30.029,42.358
202000100,-5.493,34.363,33.630
202000110,-5.493,34.363,33.630
202000120,-5.493,34.363,33.630
202000200,-5.249,37.720,22.278
202000210,-5.249,37.720,22.278
202000220,-5.249,37.720,10.925
202001000,-3.479,39.795,10.925
202001010,-3.479,39.795,10.925
202001021,-1.343,41.504,3.601
202001101,-1.343,41.504,3.601
202001111,-1.343,41.504,3.601
202001121,1.770,43.518,0.122
202001201,1.770,43.518,0.122
202001211,1.770,43.518,0.122
202001221,5.005,44.006,-1.709
202002001,5.005,44.006,-1.709
202002011,9.521,41.077,-2.991
202002021,9.521,41.077,-2.991
202002101,9.521,41.077,-2.991
202002111,14.099,35.034,-4.333
202002121,14.099,35.034,-4.333
202002202,14.099,35.034,-4.333
202002212,17.151,28.198,-4.944
202002222,17.151,28.198,-4.944
202010002,17.151,28.198,-4.822
202010012,17.822,24.597,-4.822
202010022,17.822,24.597,-4.822
202010102,14.771,22.461,-3.906
202010112,14.771,22.461,-3.906
202010122,14.771,22.461,-3.906
202010202,9.338,20.630,-2.563
202010220,9.338,20.630,-2.563
202011000,9.338,20.630,-2.563
202011010,3.845,19.287,-2.136
202011020,3.845,19.287,-2.136
202011100,0.061,19.226,-1.953
202011110,0.061,19.226,-1.953
202011120,0.061,19.226,-1.953
202011200,-3.235,19.348,-1.953
202011211,-3.235,19.348,-1.953
202011221,-3.235,19.348,-1.953
202012001,-3.967,16.907,-2.197
202012011,-3.967,16.907,-2.197
202012021,0.122,8.972,-3.174
202012101,0.122,8.972,-3.174
202012111,0.122,8.972,-3.174
202012121,5.981,-1.465,-4.700
202012202,5.981,-1.465,-4.700
202012212,5.981,-1.465,-4.700
202012222,13.367,-9.521,-5.981
202020002,13.367,-9.521,-5.981
202020012,19.531,-15.259,-4.761
202020100,19.531,-15.259,-4.761
202020110,19.531,-15.259,-4.761
202020120,24.231,-19.104,-2.502
202020200,24.231,-19.104,-2.502
202020210,24.231,-19.104,-0.916
202020221,27.222,-22.339,-0.916
202021001,27.222,-22.339,-0.916
202021011,28.137,-25.391,0.610
202021021,28.137,-25.391,0.610
202021101,28.137,-25.391,0.610
202021111,26.123,-26.367,1.038
202021121,26.123,-26.367,1.038
202021201,26.123,-26.367,1.038
202021211,21.362,-23.926,-0.366
202021222,21.362,-23.926,-0.366
202022002,15.747,-18.005,-2.747
202022012,15.747,-18.005,-2.747
202022022,15.747,-18.005,-2.747
202022102,10.315,-11.658,-4.700
202022112,10.315,-11.658,-4.700
202022200,10.315,-11.658,-3.357
202022210,5.066,-8.057,-3.357
202022220,5.066,-8.057,-3.357
202100000,2.136,-8.179,1.160
202100010,2.136,-8.179,1.160
202100020,2.136,-8.179,1.160
202100100,3.967,-13.367,7.629
202100111,3.967,-13.367,7.629
202100121,3.967,-13.367,12.024
202100201,9.949,-23.010,12.024
202100211,9.949,-23.010,12.024
202100221,18.311,-30.823,12.512
202101001,18.311,-30.823,12.512
202101011,18.311,-30.823,12.512
202101021,25.146,-31.128,8.850
202101101,25.146,-31.128,8.850
202101111,25.146,-31.128,8.850
202101122,28.320,-23.804,2.136
202101202,28.320,-23.804,2.136
202101212,28.137,-12.146,-5.127
202101222,28.137,-12.146,-5.127
202102002,28.137,-12.146,-5.127
202102012,25.085,0.732,-12.939
202102022,25.085,0.732,-12.939
202102102,25.085,0.732,-12.939
202102112,18.799,10.986,-19.226
202102200,18.799,10.986,-19.226
202102210,3.174,16.968,-20.752
202102220,9.888,16.968,-20.752
202110000,9.888,16.968,-20.752
202110010,0.183,18.005,-16.846
202110020,0.183,18.005,-16.846
202110100,0.183,18.005,-16.846
202110110,-12.207,17.090,-7.263
202110120,-12.207,17.090,-7.263
202110200,-12.207,17.090,8.362
202110210,-26.855,14.954,6.897
202110221,-26.855,14.954,6.897
202111001,-38.513,10.986,23.743
202111011,-38.513,10.986,23.743
202111021,-38.513,10.986,23.743
202111101,-42.358,6.653,38.391
202111111,-42.358,6.653,38.391
202111121,-42.358,6.653,38.391
202111201,-36.011,2.625,47.058
202111211,-36.011,2.625,47.058
202111221,-20.386,-4.822,47.058
202112002,-22.705,-4.822,47.058
202112012,-22.705,-4.822,47.058
202112022,-3.479,-14.160,38.940
202112102,-3.479,-14.160,38.940
202112112,-3.479,-14.160,38.940
202112122,20.020,-15.991,26.917
202112210,20.020,-15.991,26.917
202112220,39.001,-6.165,15.808
202120000,39.001,-6.165,15.808
202120010,39.001,-6.165,15.808
202120020,44.434,9.705,9.216
202120100,44.434,9.705,9.216
202120110,44.434,9.705,9.216
202120120,38.696,26.917,6.042
202120200,38.696,26.917,6.042
202120210,38.696,26.917,6.042
202120220,27.283,39.612,3.052
202121000,27.283,39.612,3.052
202121010,27.283,46.082,1.282
202121020,15.808,46.082,1.282
202121100,15.808,46.082,1.282
202121110,7.141,46.326,3.540
202121120,7.141,46.326,3.540
202121200,7.141,46.326,3.540
202121210,1.587,41.016,9.644
202121220,1.587,41.016,9.644
202122000,1.587,41.016,9.644
202122010,4.578,35.828,15.991
202122020,4.578,35.828,15.991
202122100,4.578,35.828,15.991
202122110,5.432,19.836,30.945
202122120,5.432,19.836,30.945
202122200,4.761,2.563,58.960
202122210,4.761,2.563,58.960
202122220,4.761,2.563,58.960
202200000,14.221,-4.456,82.458
202200010,14.221,-4.456,82.458
202200020,14.221,-4.456,82.458
202200100,25.940,-5.737,90.759
202200110,25.940,-5.737,90.759
202200121,25.940,-5.737,106.384
202200201,29.663,-6.226,94.482
202200211,29.663,-6.226,94.482
202200221,26.062,-2.563,91.064
202201001,26.062,-2.563,91.064
202201011,26.062,-2.563,91.064
202201021,16.663,11.108,78.369
202201101,16.663,11.108,78.369
202201111,16.663,11.108,78.369
202201121,5.798,30.884,56.763
202201201,5.798,30.884,56.763
202201211,5.798,30.884,56.763
202201221,-2.563,51.025,32.471
202202001,-2.563,51.025,32.471
202202011,-3.174,66.284,16.541
202202021,-3.174,66.284,16.541
202202101,-3.174,66.284,16.541
202202112,3.418,74.951,2.380
202202122,3.418,74.951,2.380
202202202,3.418,74.951,2.380
202202212,6.287,69.763,5.676
202202222,6.287,69.763,5.676
202210002,6.287,69.763,21.301
202210012,11.353,56.641,19.104
202210022,11.353,56.641,19.104
202210102,17.395,33.997,34.302
202210112,17.395,33.997,34.302
202210122,17.395,33.997,34.302
202210202,25.208,11.169,58.899
202210212,25.208,11.169,58.899
202210222,25.208,11.169,58.899
202211002,31.555,-5.615,72.815
202211012,31.555,-5.615,72.815
202211022,31.555,-5.615,72.815
202211102,33.447,-16.724,85.327
202211112,33.447,-16.724,85.327
202211122,27.710,-16.113,90.637
202211202,27.710,-16.113,90.637
202211212,27.710,-16.113,90.637
202211222,14.038,-7.385,84.961
202212010,14.038,-7.385,84.961
202212020,14.038,-7.385,84.961
202212100,-1.526,5.615,73.059
202212110,-1.526,5.615,73.059
202212120,-1.526,18.982,51.208
202212200,-8.057,18.982,51.208
202212210,-8.057,18.982,51.208
202212220,-23.315,31.921,30.884
202220000,-23.315,31.921,30.884
202220011,-23.315,31.921,30.884
202220021,-33.813,40.344,9.644
202220101,-33.813,40.344,9.644
202220111,-33.813,40.344,-2.014
202220121,-45.654,45.227,-2.014
202220201,-45.654,45.227,-2.014
202220211,-41.992,49.683,-6.409
202220222,-41.992,49.683,-6.409
202221002,-41.992,49.683,-6.409
202221012,-35.706,53.833,0.732
202221022,-35.706,53.833,0.732
202221102,-35.706,50.659,9.155
202221112,-27.100,50.659,9.155
202221122,-27.100,50.659,9.155
202221202,-17.944,40.588,18.921
202221212,-17.944,40.588,18.921
202222000,-17.944,40.588,18.921
202222010,-5.798,29.785,27.344
202222020,-5.798,29.785,27.344
202222100,-5.798,29.785,27.344
202222110,3.601,21.790,31.860
202222120,3.601,21.790,31.860
202222200,5.188,20.752,33.875
202222210,5.188,20.752,33.875
202222220,5.188,20.752,33.875
210000000,1.160,15.625,33.264
210000010,1.160,15.625,33.264
210000020,1.160,15.625,33.264
210000100,-7.385,10.742,33.630
210000110,-7.385,10.742,33.630
210000120,-7.385,10.742,33.630
210000200,-16.724,7.507,33.325
210000211,-16.724,7.507,33.325
210000221,-23.254,3.723,33.752
210001001,-23.254,3.723,33.752
210001011,-23.254,3.723,33.752
210001021,-34.119,-0.183,36.499
210001101,-34.119,-0.183,36.499
210001111,-34.119,-0.183,36.499
210001122,-41.809,-3.113,37.109
210001202,-41.809,-3.113,37.109
210001212,-48.889,-2.625,38.269
210001222,-48.889,-2.625,38.269
210002010,-48.889,-2.625,38.269
210002020,-52.612,1.221,35.950
210002100,-52.612,1.221,35.950
210002110,-52.612,1.221,20.325
210002120,-54.138,9.277,28.015
210002200,-54.138,9.277,28.015
210002210,-53.711,20.325,17.151
210002220,-53.711,20.325,17.151
210010000,-53.711,20.325,17.151
210010010,-53.345,32.410,7.996
210010021,-53.345,32.410,7.996
210010101,-53.345,32.410,7.996
210010111,-51.941,42.358,-0.549
210010121,-51.941,42.358,-0.549
210010201,-50.903,48.462,-5.798
210010211,-50.903,48.462,-5.798
210010221,-50.903,48.462,-5.798
210011002,-52.124,49.561,-9.277
210011012,-52.124,49.561,-9.277
210011022,-52.124,49.561,-9.277
210011102,-57.007,47.363,-8.362
210011112,-57.007,47.363,-8.362
210011122,-59.998,44.617,-6.226
210011210,-59.998,44.617,-6.226
210011220,-59.998,44.617,-6.226
210012000,-56.152,39.185,-5.371
210012010,-56.152,39.185,-5.371
210012020,-56.152,39.185,-8.240
210012101,-46.509,29.968,-8.240
210012111,-46.509,29.968,-8.240
210012121,-36.926,18.372,-12.024
210012201,-36.926,18.372,-12.024
210012211,-36.926,18.372,-12.024
210012221,-30.884,7.629,-9.949
210020002,-30.884,7.629,-9.949
210020012,-30.884,-0.488,-9.033
210020022,-26.855,-0.488,-9.033
210020102,-26.855,-0.488,-9.033
210020120,-19.287,-4.517,-16.968
210020200,-19.287,-4.517,-16.968
210020210,-19.287,-4.517,-16.968
210020220,-13.489,-1.465,-24.902
210021001,-13.489,-1.465,-24.902
210021011,-14.465,3.784,-26.245
210021021,-14.465,3.784,-26.245
210021101,-14.465,3.784,-26.245
210021111,-10.925,7.019,-29.541
210021122,-10.925,7.019,-29.541
210021202,-7.324,6.531,-31.738
210021212,-7.324,6.531,-31.738
210021222,-7.324,6.531,-31.738
210022002,-2.808,-2.930,-25.085
210022020,-2.808,-2.930,-25.085
210022100,-2.808,-2.930,-25.085
210022110,9.460,-21.362,-13.489
210022120,9.460,-21.362,-13.489
210022200,28.992,-47.119,-2.563
210022211,28.992,-47.119,-2.563
210022221,28.992,-47.119,-2.563
210100001,49.927,-70.679,5.615
210100011,49.927,-70.679,5.615
210100021,49.927,-70.679,5.615
210100101,57.434,-82.642,13.306
210100111,57.434,-82.642,13.306
210100121,57.068,-76.721,15.503
210100202,57.068,-76.721,15.503
210100212,57.068,-76.721,15.503
210100222,50.293,-56.763,9.766
210101002,50.293,-56.763,9.766
210101012,50.293,-56.763,9.766
210101022,38.452,-34.729,0.305
210101102,38.452,-34.729,0.305
210101112,30.457,-18.982,-12.756
210101122,30.457,-18.982,-12.756
210101210,30.457,-18.982,-12.756
210101220,28.442,-11.719,-29.175
210102000,28.442,-11.719,-29.175
210102010,28.442,-11.719,-29.175
210102020,32.593,-8.057,-43.335
210102101,32.593,-8.057,-43.335
210102111,39.124,-6.897,-51.270
210102121,39.124,-6.897,-51.270
210102201,39.124,-6.897,-51.270
210102211,46.631,-10.010,-51.147
210102221,46.631,-10.010,-51.147
210110002,46.631,-10.010,-40.283
210110012,56.213,-20.142,-40.283
210110022,56.213,-20.142,-40.283
210110102,63.965,-34.424,-22.400
210110112,63.965,-34.424,-22.400
210110122,63.965,-34.424,-22.400
210110210,65.674,-46.082,-6.531
210110220,65.674,-46.082,-6.531
210111000,65.674,-61.707,4.578
210111010,57.129,-49.805,4.578
210111020,57.129,-49.805,4.578
210111100,41.138,-44.006,14.221
210111110,41.138,-44.006,14.221
210111120,41.138,-44.006,14.221
210111201,28.625,-33.020,18.250
210111211,28.625,-33.020,18.250
210111221,28.625,-33.020,18.250
210112001,25.452,-22.522,19.043
210112011,25.452,-22.522,19.043
210112021,30.029,-15.442,17.273
210112101,30.029,-15.442,17.273
210112111,30.029,-15.442,17.273
210112121,35.034,-12.024,14.587
210112201,35.034,-12.024,14.587
210112212,35.034,-12.024,14.587
210112222,38.330,-7.751,11.475
210120002,38.330,-7.751,11.475
210120012,38.330,-1.953,7.263
210120022,38.513,-1.953,7.263
210120102,38.513,-1.953,7.263
210120112,32.410,1.465,3.967
210120122,32.410,1.465,3.967
210120202,32.410,1.465,3.967
210120212,27.405,3.479,0.854
210120222,27.405,3.479,0.854
210121002,27.405,3.479,0.854
210121012,20.386,6.104,1.648
210121022,20.386,6.104,1.648
210121102,20.386,6.104,8.057
210121112,7.263,9.705,8.057
210121122,7.263,9.705,8.057
210121202,-3.723,13.733,15.564
210121212,-3.723,13.733,15.564
210121222,-3.723,13.733,15.564
210122002,-10.437,16.541,20.508
210122012,-10.437,16.541,20.508
210122100,-10.437,16.541,20.508
210122110,-13.733,17.456,23.621
210122120,-13.733,17.456,23.621
210122200,-15.991,18.372,22.278
210122210,-15.991,18.372,22.278
210122220,-15.991,18.372,22.278
210200000,-16.113,21.484,15.076
210200010,-16.113,21.484,15.076
210200020,-16.113,21.484,15.076
210200101,-14.221,25.635,4.944
210200111,-14.221,25.635,4.944
210200121,-14.221,30.029,-4.272
210200201,-13.794,30.029,-4.272
210200211,-13.794,30.029,-4.272
210200221,-15.869,33.997,-11.475
210201001,-15.869,33.997,-11.475
210201012,-15.869,33.997,-11.475
210201022,-20.020,35.522,-16.052
210201102,-20.020,35.522,-16.052
210201112,-23.865,32.410,-17.700
210201122,-23.865,32.410,-17.700
210201202,-23.865,32.410,-17.700
210201220,-24.292,25.269,-15.503
210202000,-24.292,25.269,-15.503
210202010,-24.292,25.269,-15.503
210202020,-24.780,16.785,-7.568
210202100,-24.780,16.785,-7.568
210202111,-25.757,11.719,1.099
210202121,-25.757,11.719,1.099
210202201,-25.757,11.719,1.099
210202211,-24.414,10.742,5.127
210202221,-24.414,10.742,5.127
210210001,-24.414,10.742,5.127
210210011,-20.142,11.963,3.296
210210021,-20.142,11.963,3.296
210210101,-14.282,13.245,-2.380
210210112,-14.282,13.245,-2.380
210210122,-14.282,13.245,-2.380
210210202,-9.460,14.893,-9.399
210210212,-9.460,14.893,-9.399
210210222,-9.460,14.893,-9.399
210211002,-5.737,18.372,-16.785
210211020,-5.737,18.372,-16.785
210211100,-3.235,23.071,-23.376
210211110,-3.235,23.071,-23.376
210211120,-3.235,23.071,-23.376
210211201,-1.648,25.940,-26.367
210211211,-1.648,25.940,-26.367
210211221,-1.648,25.940,-25.940
210212001,0.854,24.536,-25.940
210212011,0.854,24.536,-25.940
210212021,3.113,19.287,-23.926
210212101,3.113,19.287,-23.926
210212112,3.113,19.287,-23.926
210212122,4.089,12.207,-22.095
210212202,4.089,12.207,-22.095
210212212,4.089,12.207,-22.095
210212222,4.395,7.141,-20.203
210220002,4.395,7.141,-20.203
210220012,3.540,3.906,-18.311
210220022,3.540,3.906,-18.311
210220102,3.540,3.906,-18.311
210220112,1.953,2.625,-16.785
210220200,1.953,2.625,-16.785
210220210,1.953,2.625,-16.785
210220220,1.526,3.113,-15.442
210221000,1.526,3.113,-15.442
210221010,4.822,3.235,-16.113
210221020,4.822,3.235,-16.113
210221100,4.822,3.235,-16.113
210221110,13.000,0.671,-17.578
210221120,13.000,0.671,-17.578
210221201,13.000,0.671,-17.578
210221211,25.085,-2.869,-18.738
210221221,25.085,-2.869,-18.738
210222001,37.964,-6.104,-18.799
210222011,37.964,-6.104,-18.799
210222021,37.964,-6.104,-18.799
210222102,47.485,-9.155,-16.663
210222112,47.485,-9.155,-16.663
210222122,47.485,-9.155,-16.663
210222202,51.636,-12.817,-13.489
210222212,51.636,-12.817,-13.489
211000000,51.392,-16.785,-11.475
211000010,51.392,-16.785,-11.475
211000020,51.392,-16.785,-11.475
211000100,46.509,-20.813,-10.864
211000110,46.509,-20.813,-10.864
211000121,46.509,-20.813,-11.169
211000201,37.842,-22.217,-11.169
211000211,37.842,-22.217,-11.169
211000221,27.222,-18.799,-11.292
211001001,27.222,-18.799,-11.292
211001011,27.222,-18.799,-11.292
211001022,16.357,-12.085,-12.329
211001102,16.357,-12.085,-12.329
211001112,0.732,-7.690,-13.062
211001122,8.057,-7.690,-13.062
211001202,8.057,-7.690,-13.062
211001220,5.066,-7.568,-13.245
211002000,5.066,-7.568,-13.245
211002010,5.066,-7.568,-13.245
211002020,8.362,-9.766,-12.634
211002100,8.362,-9.766,-12.634
211002110,16.052,-12.939,-10.864
211002121,16.052,-12.939,-10.864
211002201,16.052,-12.939,-10.864
211002211,25.574,-15.869,-7.812
211002221,25.574,-15.869,-7.812
211010001,25.574,-15.869,-7.812
211010012,34.485,-19.287,-5.493
211010022,34.485,-19.287,-5.493
211010102,40.771,-22.583,-4.578
211010112,40.771,-22.583,-4.578
211010122,40.771,-22.583,-4.578
211010202,42.053,-23.071,-5.188
211010220,42.053,-23.071,-5.188
211011000,42.053,-23.071,-6.653
211011010,37.659,-20.569,-6.653
211011020,37.659,-20.569,-6.653
211011100,29.480,-17.029,-7.751
211011110,29.480,-17.029,-7.751
211011121,29.480,-17.029,-7.751
211011201,20.264,-14.160,-8.789
211011211,20.264,-14.160,-8.789
211011221,4.639,-13.184,-7.935
211012001,12.634,-13.184,-7.935
211012011,12.634,-13.184,-7.935
211012022,7.507,-15.808,-3.540
211012102,7.507,-15.808,-3.540
211012112,7.507,-15.808,-3.540
211012122,4.578,-20.630,5.188
211012202,4.578,-20.630,5.188
211012212,4.578,-26.794,19.592
211012222,3.906,-26.794,19.592
211020010,3.906,-26.794,19.592
211020020,4.700,-33.447,36.865
211020100,4.700,-33.447,36.865
211020110,4.700,-33.447,36.865
211020120,6.104,-39.917,52.979
211020200,6.104,-39.917,52.979
211020210,6.104,-39.917,63.477
211020220,7.690,-43.701,63.477
211021000,7.690,-43.701,63.477
211021010,9.033,-41.626,62.256
211021021,9.033,-41.626,62.256
211021101,9.033,-41.626,62.256
211021111,5.188,-31.067,47.668
211021121,5.188,-31.067,47.668
211021201,5.188,-31.067,24.109
211021211,-1.953,-12.268,24.109
211021221,-1.953,-12.268,24.109
211022002,-6.958,5.310,-0.854
211022012,-6.958,5.310,-0.854
211022022,-6.958,5.310,-0.854
211022102,-5.737,15.869,-18.738
211022112,-5.737,15.869,-18.738
211022200,-5.737,14.160,-25.940
211022210,2.014,14.160,-25.940
211022220,2.014,14.160,-25.940
211100000,16.052,0.427,-19.714
211100010,16.052,0.427,-19.714
211100020,16.052,0.427,-19.714
211100100,34.973,-18.860,-4.395
211100111,34.973,-18.860,-4.395
211100121,50.598,-39.612,13.916
211100201,51.575,-39.612,13.916
211100211,51.575,-39.612,13.916
211100221,59.326,-54.688,32.776
211101001,59.326,-54.688,32.776
211101011,59.326,-54.688,32.776
211101021,54.260,-57.068,46.326
211101101,54.260,-57.068,46.326
211101111,54.260,-57.068,61.951
211101122,39.673,-46.509,49.133
211101202,39.673,-46.509,49.133
211101212,20.630,-24.536,41.443
211101222,20.630,-24.536,41.443
211102002,20.630,-24.536,41.443
211102012,0.366,3.479,27.893
211102022,0.366,3.479,27.893
211102102,0.366,3.479,27.893
211102112,-10.071,27.710,13.123
211102122,-10.071,27.710,13.123
211102202,-10.071,35.522,2.380
211102220,-5.188,35.522,2.380
211110000,-5.188,35.522,2.380
211110010,10.742,26.184,0.061
211110020,10.742,26.184,0.061
211110100,10.742,26.184,0.061
211110110,28.442,7.080,6.348
211110120,28.442,7.080,6.348
211110200,28.442,7.080,6.348
211110210,39.734,-13.245,19.104
211110220,39.734,-13.245,19.104
211111000,41.565,-31.555,34.363
211111010,41.565,-31.555,34.363
211111020,41.565,-31.555,34.363
211111100,34.058,-41.992,48.584
211111111,34.058,-41.992,48.584
211111121,34.058,-41.992,48.584
211111201,17.456,-41.321,59.204
211111211,17.456,-41.321,59.204
211111221,17.456,-28.259,60.608
211112001,-5.066,-28.259,60.608
211112011,-5.066,-28.259,60.608
211112021,-29.602,-8.362,52.368
211112102,-29.602,-8.362,52.368
211112112,-29.602,-8.362,52.368
211112122,-41.260,17.029,28.503
211112202,-41.260,17.029,28.503
211112212,-46.326,40.649,7.446
211112222,-46.326,40.649,7.446
211120002,-46.326,40.649,7.446
211120020,-45.288,52.551,-8.240
211120100,-45.288,52.551,-8.240
211120110,-45.288,52.551,-8.240
211120120,-47.241,47.546,-16.907
211120200,-47.241,47.546,-16.907
211120211,-42.725,30.396,-20.142
211120221,-42.725,30.396,-20.142
211121001,-42.725,30.396,-20.142
211121011,-33.203,6.226,-19.836
211121021,-33.203,6.226,-19.836
211121102,-33.203,6.226,-19.836
211121112,-28.076,-19.226,-9.827
211121122,-28.076,-19.226,-9.827
211121202,-26.489,-37.231,9.766
211121212,-26.489,-37.231,9.766
211122000,-26.489,-37.231,9.766
211122010,-23.865,-41.870,35.278
211122020,-23.865,-41.870,35.278
211122100,-23.865,-36.865,56.885
211122110,-18.616,-36.865,56.885
211122121,-18.616,-36.865,56.885
211122201,-12.878,-28.320,68.787
211122211,-12.878,-28.320,68.787
211122221,-12.878,-28.320,68.787
211200001,-9.216,-20.874,71.045
211200012,-9.216,-20.874,71.045
211200022,-7.507,-16.296,65.979
211200102,-7.507,-16.296,65.979
211200112,-7.507,-16.296,65.979
211200122,-8.179,-11.780,56.824
211200202,-8.179,-11.780,56.824
211200220,-8.179,-11.780,56.824
211201000,-10.864,-5.310,47.363
211201010,-10.864,-5.310,47.363
211201020,-12.817,1.526,38.879
211201100,-12.817,1.526,38.879
211201110,-12.817,1.526,38.879
211201121,-13.916,4.578,33.875
211201201,-13.916,4.578,33.875
211201211,-13.916,4.578,33.875
211201221,-16.296,3.906,32.837
211202001,-16.296,3.906,32.837
211202011,-20.508,3.784,31.860
211202021,-20.508,3.784,31.860
211202101,-20.508,3.784,31.860
211202111,-29.419,3.845,33.264
211202121,-29.419,3.845,33.264
211202201,-29.419,3.845,33.264
211202211,-24.170,11.047,35.461
211202222,-24.170,11.047,35.461
211210002,-24.170,16.785,35.461
211210012,-15.747,16.785,35.461
211210022,-15.747,16.785,35.461
211210102,-11.963,13.672,35.950
211210112,-11.963,13.672,35.950
211210122,-11.963,13.672,35.950
211210202,-8.118,7.324,35.156
211210212,-8.118,7.324,35.156
211211000,-8.118,7.324,33.264
211211010,-4.089,2.197,33.264
211211020,-4.089,2.197,33.264
211211100,-2.075,-1.648,30.701
211211110,-2.075,-1.648,30.701
211211120,-2.075,-1.648,30.701
211211200,-1.465,-4.456,23.987
211211210,-1.465,-4.456,23.987
211211221,-1.465,-4.456,13.245
211212001,-1.404,-4.944,13.245
211212011,-1.404,-4.944,13.245
211212021,-4.333,-1.465,2.014
211212101,-4.333,-1.465,2.014
211212112,-4.333,-1.465,2.014
211212122,-9.827,7.324,-7.996
211212202,-9.827,7.324,-7.996
211212212,-25.452,19.958,-18.250
211212222,-16.296,19.958,-18.250
211220010,-16.296,19.958,-18.250
211220020,-22.156,31.067,-25.146
211220100,-22.156,31.067,-25.146
211220110,-22.156,31.067,-25.146
211220120,-24.536,35.889,-27.405
211220201,-24.536,35.889,-27.405
211220211,-19.043,30.640,-25.269
211220221,-19.043,30.640,-25.269
211221001,-19.043,30.640,-25.269
211221011,-8.118,16.968,-17.822
211221021,-8.118,16.968,-17.822
211221102,-8.118,16.968,-2.197
211221112,3.906,1.282,-8.667
211221122,3.906,1.282,-8.667
211221202,14.099,-10.376,-4.395
211221212,14.099,-10.376,-4.395
211221222,14.099,-10.376,-4.395
211222010,18.311,-16.418,-3.479
211222020,18.311,-16.418,-3.479
211222100,18.311,-16.418,-5.249
211222110,16.541,-14.954,-5.249
211222120,16.541,-14.954,-5.249
211222200,11.353,-5.981,-13.611
211222211,11.353,-5.981,-13.611
211222221,11.353,-5.981,-13.611
212000001,6.165,9.644,-27.954
212000011,6.165,9.644,-27.954
212000021,6.165,28.931,-46.753
212000101,1.587,28.931,-46.753
212000111,1.587,28.931,-46.753
212000122,-3.357,47.180,-67.017
212000202,-3.357,47.180,-67.017
212000212,-3.357,47.180,-67.017
212000222,-6.653,61.340,-83.130
212001002,-6.653,61.340,-83.130
212001012,-6.653,65.552,-88.196
212001100,-5.920,65.552,-88.196
212001110,-5.920,65.552,-88.196
212001120,0.366,55.481,-77.332
212001200,0.366,55.481,-77.332
212001210,0.366,55.481,-77.332
212001220,13.794,33.997,-53.833
212002000,13.794,33.997,-53.833
212002011,13.794,8.362,-23.804
212002021,29.663,8.362,-23.804
212002101,29.663,8.362,-23.804
212002111,42.053,-13.000,5.249
212002121,42.053,-13.000,5.249
212002201,42.053,-13.000,5.249
212002211,48.340,-28.259,25.879
212002221,48.340,-28.259,25.879
212010001,48.340,-28.259,32.715
212010011,47.791,-35.400,32.715
212010021,47.791,-35.400,32.715
212010102,41.077,-31.555,26.367
212010112,41.077,-31.555,26.367
212010122,41.077,-31.555,26.367
212010202,27.832,-16.724,12.756
212010212,27.832,-16.724,12.756
212010222,27.832,-16.724,12.756
212011002,8.667,3.113,-1.221
212011012,8.667,3.113,-1.221
212011022,-8.850,19.836,-16.357
212011110,-8.850,19.836,-16.357
212011120,-8.850,19.836,-16.357
212011200,-22.400,30.762,-32.288
212011210,-22.400,30.762,-32.288
212011220,-22.400,30.762,-32.288
212012001,-30.151,35.950,-45.288
212012011,-30.151,35.950,-45.288
212012021,-32.288,35.156,-51.941
212012101,-32.288,35.156,-51.941
212012111,-32.288,35.156,-51.941
212012122,-29.358,28.931,-49.744
212012202,-29.358,28.931,-49.744
212012212,-29.358,28.931,-38.330
212012222,-23.315,18.311,-38.330
212020002,-23.315,18.311,-38.330
212020020,-16.602,6.287,-20.020
212020100,-16.602,6.287,-20.020
212020110,-16.602,6.287,-20.020
212020120,-11.597,-3.906,-1.953
212020200,-11.597,-3.906,-1.953
212020211,-8.606,-10.437,11.292
212020221,-8.606,-10.437,11.292
212021001,-8.606,-10.437,11.292
212021011,-4.272,-11.963,19.226
212021021,-4.272,-11.963,19.226
212021102,-4.272,-11.963,19.226
212021112,3.296,-11.230,20.569
212021122,3.296,-11.230,20.569
212021202,9.827,-13.794,18.372
212021212,9.827,-13.794,18.372
212021222,9.827,-13.794,18.372
212022002,14.404,-17.578,14.160
212022012,14.404,-17.578,14.160
212022100,14.404,-17.578,14.160
212022110,14.832,-18.982,11.353
212022120,14.832,-18.982,11.353
212022200,14.282,-15.564,8.850
212022210,14.282,-15.564,8.850
212022220,14.282,-15.564,8.850
212100000,10.681,-9.155,7.080
212100010,10.681,-9.155,7.080
212100021,10.681,-9.155,7.080
212100101,8.179,-1.099,6.104
212100111,8.179,-1.099,6.104
212100121,7.812,3.357,10.132
212100201,7.812,3.357,10.132
212100211,7.812,3.357,10.132
212100221,3.845,0.671,21.118
212101001,3.845,0.671,21.118
212101011,3.845,0.671,21.118
212101021,3.601,-5.188,34.058
212101101,3.601,-5.188,34.058
212101111,3.601,-5.188,34.058
212101121,8.240,-12.024,45.471
212101201,8.240,-12.024,45.471
212101212,12.146,-20.691,54.810
212101222,12.146,-20.691,54.810
212102002,12.146,-20.691,54.810
212102012,11.658,-28.503,60.120
212102022,11.658,-28.503,60.120
212102102,11.658,-28.503,60.120
212102112,13.184,-31.067,54.871
212102122,13.184,-31.067,54.871
212102210,19.653,-26.367,40.039
212102220,19.653,-26.367,40.039
212110000,19.653,-26.367,40.039
212110010,25.330,-16.907,23.682
212110020,25.330,-16.907,23.682
212110100,25.330,-16.907,23.682
212110110,21.057,-7.507,13.245
212110120,21.057,-7.507,13.245
212110200,21.057,1.282,7.141
212110211,10.864,1.282,7.141
212110221,10.864,1.282,7.141
212111000,2.380,7.996,3.479
212111010,2.380,7.996,3.479
212111020,2.380,7.996,3.479
212111100,-1.648,11.475,4.517
212111111,-1.648,11.475,4.517
212111121,-1.648,11.475,4.517
212111201,-1.465,11.414,9.338
212111211,-1.465,11.414,9.338
212111221,2.502,8.545,13.794
212112001,2.502,8.545,13.794
212112011,2.502,8.545,13.794
212112021,7.080,4.456,16.541
212112101,7.080,4.456,16.541
212112111,7.080,4.456,16.541
212112121,12.390,1.709,16.052
212112201,12.390,1.709,16.052
212112211,12.390,1.709,16.052
212112221,17.822,0.488,12.451
212120001,17.822,0.488,12.451
212120011,17.822,0.488,12.451
212120021,22.522,0.366,7.019
212120101,22.522,0.366,7.019
212120111,24.292,4.822,2.563
212120121,24.292,4.822,2.563
212120201,24.292,4.822,2.563
212120211,22.827,14.832,1.648
212120221,22.827,14.832,1.648
212121001,22.827,14.832,1.648
212121011,19.348,26.184,1.526
212121021,19.348,26.184,1.526
212121101,19.348,26.184,1.526
212121111,17.639,32.043,0.244
212121121,17.639,32.043,0.244
212121201,17.639,32.043,-0.671
212121211,17.029,30.212,-0.671
212121221,17.029,30.212,-0.671
212122001,20.203,23.437,0.305
212122011,20.203,23.437,0.305
212122021,20.203,23.437,0.305
212122101,25.146,14.648,3.174
212122111,25.146,14.648,3.174
212122121,25.146,14.648,3.174
212122201,29.358,6.409,7.080
212122211,29.358,6.409,7.080
212122221,29.358,6.409,7.080
212200001,32.715,-1.038,10.376
212200011,32.715,-1.038,10.376
212200021,34.119,-8.179,10.254
212200102,34.119,-8.179,10.254
212200112,34.119,-8.179,10.254
212200122,33.813,-13.916,5.798
212200202,33.813,-13.916,5.798
212200212,33.813,-13.916,5.798
212200222,33.020,-14.038,-0.549
212201002,33.020,-14.038,-0.549
212201020,31.433,-6.470,-6.592
212201100,31.433,-6.470,-6.592
212201110,31.433,-6.470,-6.592
212201120,31.006,2.441,-12.390
212201200,31.006,2.441,-12.390
212201211,31.006,2.441,-12.390
212201221,31.860,7.385,-15.076
212202001,31.860,7.385,-15.076
212202011,31.921,6.958,-15.076
212202021,31.921,6.958,-15.076
212202101,31.921,6.958,-15.076
212202111,30.457,3.174,-14.343
212202121,30.457,3.174,-14.343
212202201,30.457,3.174,-14.343
212202211,27.588,-1.099,-13.672
212202221,27.588,-1.099,-13.672
212210002,27.588,-4.639,-13.794
212210012,24.170,-4.639,-13.794
212210022,24.170,-4.639,-13.794
212210102,20.142,-6.897,-15.381
212210112,20.142,-6.897,-15.381
212210200,20.142,-6.897,-15.381
212210210,15.747,-5.737,-18.372
212210220,15.747,-5.737,-18.372
212211000,12.024,-1.160,-22.278
212211011,12.024,-1.160,-22.278
212211021,12.024,-1.160,-22.278
212211101,10.681,2.869,-25.818
212211111,10.681,2.869,-25.818
212211121,10.681,2.869,-25.818
212211201,14.832,2.075,-28.381
212211211,14.832,2.075,-28.381
212211221,24.109,-3.845,-28.992
212212001,24.109,-3.845,-28.992
212212012,24.109,-3.845,-28.992
212212022,34.485,-10.498,-27.405
212212102,34.485,-10.498,-27.405
212212112,34.485,-10.498,-24.475
212212200,41.138,-15.869,-24.475
212212210,41.138,-15.869,-24.475
212212220,43.030,-19.287,-21.240
212220000,43.030,-19.287,-21.240
212220010,43.030,-19.287,-21.240
212220021,40.222,-19.409,-19.470
212220101,40.222,-19.409,-19.470
212220111,24.597,-15.320,-20.508
212220121,30.823,-15.320,-20.508
212220201,30.823,-15.320,-20.508
212220211,16.357,-7.751,-24.414
212220222,16.357,-7.751,-24.414
212221002,16.357,-7.751,-24.414
212221012,-1.160,2.747,-30.273
212221022,-1.160,2.747,-30.273
212221102,-18.433,15.625,-36.133
212221120,-18.433,15.625,-36.133
212221200,-18.433,15.625,-36.133
212221210,-30.518,22.827,-36.926
212221220,-30.518,22.827,-36.926
212222000,-30.518,22.827,-30.945
212222011,-32.593,16.235,-30.945
212222021,-32.593,16.235,-30.945
212222101,-22.583,-1.160,-22.400
212222111,-22.583,-1.160,-22.400
212222122,-22.583,-1.160,-22.400
212222202,-4.822,-23.376,-15.198
212222212,-4.822,-23.376,-15.198
212222222,14.465,-42.664,-10.193
220000002,14.465,-42.664,-10.193
220000020,14.465,-42.664,-10.193
220000100,30.701,-54.749,-4.822
220000110,30.701,-54.749,-4.822
220000120,30.701,-54.749,10.803
220000200,41.809,-58.716,1.404
220000210,41.809,-58.716,1.404
220000220,45.471,-55.237,7.874
220001000,45.471,-55.237,7.874
220001011,45.471,-55.237,7.874
220001021,38.574,-44.617,12.268
220001101,38.574,-44.617,12.268
220001111,38.574,-44.617,12.268
220001121,20.813,-27.954,12.024
220001201,20.813,-27.954,12.024
220001211,20.813,-9.094,5.737
220001221,1.160,-9.094,5.737
220002001,1.160,-9.094,5.737
220002011,-13.733,4.028,-1.831
220002022,-13.733,4.028,-1.831
220002102,-13.733,4.028,-1.831
220002112,-19.958,6.836,-8.118
220002122,-19.958,6.836,-8.118
220002202,-4.333,-0.122,-13.489
220002212,-13.977,-0.122,-13.489
220010000,-13.977,-0.122,-13.489
220010010,1.282,-16.846,-16.296
220010020,1.282,-16.846,-16.296
220010100,1.282,-16.846,-16.296
220010111,20.691,-38.940,-15.564
220010121,20.691,-38.940,-15.564
220010201,37.170,-56.335,-10.132
220010211,37.170,-56.335,-10.132
220010222,37.170,-56.335,-10.132
220011002,46.265,-64.941,-0.061
220011012,46.265,-64.941,-0.061
220011022,46.265,-65.674,10.986
220011102,46.997,-65.674,10.986
220011112,46.997,-65.674,10.986
220011122,38.757,-59.021,18.311
220011202,38.757,-59.021,18.311
220011220,38.757,-59.021,18.311
220012000,23.804,-43.335,19.409
220012010,23.804,-43.335,19.409
220012020,23.804,-43.335,3.784
220012100,5.737,-20.752,12.268
220012110,5.737,-20.752,12.268
220012120,-10.620,0.366,0.610
220012200,-10.620,0.366,0.610
220012210,-10.620,0.366,0.610
220012220,-20.264,13.367,-10.132
220020001,-20.264,13.367,-10.132
220020011,-20.264,13.367,-10.132
220020021,-20.996,14.099,-18.555
220020101,-20.996,14.099,-18.555
220020111,-15.625,1.343,-23.193
220020122,-15.625,1.343,-23.193
220020202,-15.625,1.343,-23.193
220020212,-10.559,-20.203,-24.536
220020222,-10.559,-20.203,-24.536
220021010,-8.911,-41.931,-23.804
220021020,-8.911,-41.931,-23.804
220021100,-8.911,-41.931,-23.804
220021111,-12.451,-56.580,-20.508
220021121,-12.451,-56.580,-20.508
220021201,-28.076,-60.120,-13.611
220021212,-19.653,-60.120,-13.611
220021222,-19.653,-60.120,-13.611
220022002,-28.625,-53.284,-5.127
220022012,-28.625,-53.284,-5.127
220022100,-28.625,-53.284,10.498
220022110,-36.682,-38.025,2.625
220022120,-36.682,-38.025,2.625
220022200,-43.152,-17.090,10.010
220022210,-43.152,-17.090,10.010
220022220,-43.152,-17.090,10.010
220100001,-47.668,4.700,16.541
220100011,-47.668,4.700,16.541
220100021,-47.668,4.700,16.541
220100101,-46.936,22.034,22.339
220100111,-46.936,22.034,22.339
220100121,-44.922,28.687,28.625
220100201,-44.922,28.687,28.625
220100211,-44.922,28.687,28.625
220100221,-45.959,25.879,33.142
220101002,-45.959,25.879,33.142
220101012,-45.959,25.879,33.142
220101022,-41.748,24.902,31.494
220101102,-41.748,24.902,31.494
220101112,-43.091,25.940,34.424
220101122,-43.091,25.940,34.424
220101202,-43.091,25.940,34.424
220101212,-54.871,27.466,36.072
220101222,-54.871,27.466,36.072
220102002,-54.871,27.466,36.072
220102012,-65.125,30.762,31.555
220102100,-65.125,30.762,31.555
220102110,-65.125,36.072,21.606
220102120,-70.313,36.072,21.606
220102200,-70.313,36.072,21.606
220102210,-69.458,39.856,14.832
220102220,-69.458,39.856,14.832
220110000,-69.458,39.856,14.832
220110010,-65.796,41.565,10.925
220110020,-65.796,41.565,10.925
220110100,-65.796,41.565,10.925
220110110,-56.702,41.321,10.620
220110120,-56.702,41.321,10.620
220110201,-48.340,38.025,10.010
220110211,-48.340,38.025,10.010
220110221,-48.340,38.025,10.010
220111001,-40.833,33.936,8.179
220111011,-40.833,33.936,8.179
220111021,-40.833,33.936,8.179
220111101,-36.194,30.823,7.507
220111111,-36.194,30.823,7.507
220111122,-36.194,29.053,8.911
220111202,-35.583,29.053,8.911
220111212,-35.583,29.053,8.911
220111222,-37.048,29.663,10.254
220112002,-37.048,29.663,10.254
220112012,-37.048,29.663,10.254
220112022,-38.940,31.738,10.864
220112102,-38.940,31.738,10.864
220112120,-38.940,33.325,10.986
220112200,-42.908,33.325,10.986
220112210,-42.908,33.325,10.986
220112220,-46.631,35.400,8.606
220120000,-46.631,35.400,8.606
220120010,-46.631,35.400,8.606
220120020,-53.345,37.964,5.798
220120100,-53.345,37.964,5.798
220120110,-53.345,37.964,5.798
220120120,-59.265,39.673,0.488
220120201,-59.265,39.673,0.488
220120211,-62.805,39.124,-4.639
220120221,-62.805,39.124,-4.639
220121001,-62.805,39.124,-4.639
220121011,-65.430,33.936,-5.981
220121021,-65.430,33.936,-5.981
220121102,-65.430,33.936,-5.615
220121112,-62.195,30.212,-5.615
220121122,-62.195,30.212,-5.615
220121202,-55.847,30.945,-2.502
220121212,-55.847,30.945,-2.502
220122000,-55.847,30.945,-2.502
220122010,-53.894,29.907,6.104
220122020,-53.894,29.907,6.104
220122100,-53.894,28.442,10.254
220122110,-46.265,28.442,10.254
220122120,-46.265,28.442,10.254
220122200,-30.396,28.564,1.892
220122210,-30.396,28.564,1.892
220122221,-30.396,28.564,1.892
220200001,-20.020,27.771,-4.761
220200011,-20.020,27.771,-4.761
220200021,-20.020,25.330,-11.292
220200101,-14.343,25.330,-11.292
220200111,-14.343,25.330,-11.292
220200122,-5.554,21.179,-23.865
220200202,-5.554,21.179,-23.865
220200212,-5.554,21.179,-23.865
220200222,4.822,19.226,-37.048
220201002,4.822,19.226,-37.048
220201012,4.822,15.808,-40.283
220201022,8.240,15.808,-40.283
220201102,8.240,15.808,-40.283
220201112,10.681,10.010,-42.908
220201122,10.681,10.010,-42.908
220201210,10.681,10.010,-42.908
220201220,8.484,2.319,-42.175
220202000,8.484,2.319,-42.175
220202010,8.484,2.319,-42.175
220202020,5.432,-3.601,-38.757
220202100,5.432,-3.601,-38.757
220202110,4.456,-4.272,-33.691
220202121,4.456,-4.272,-33.691
220202201,4.456,-4.272,-33.691
220202211,6.714,-3.906,-23.254
220202221,6.714,-3.906,-23.254
220210001,6.714,-3.906,-11.414
220210011,13.672,-9.094,-11.414
220210022,13.672,-9.094,-11.414
220210102,25.330,-22.095,-4.089
220210112,25.330,-22.095,-4.089
220210122,25.330,-22.095,-4.089
220210202,37.231,-38.147,-2.441
220210220,37.231,-38.147,-2.441
220211000,45.715,-51.575,-3.296
220211010,45.715,-51.575,-3.296
220211020,45.715,-51.575,-3.296
220211100,48.157,-57.129,-5.615
220211111,48.157,-57.129,-5.615
220211121,48.157,-57.129,-5.615
220211201,41.992,-57.068,-7.690
220211211,41.992,-57.068,-7.690
220211221,34.668,-51.636,-9.888
220212002,34.668,-51.636,-9.888
220212012,34.668,-51.636,-9.888
220212022,25.696,-41.748,-10.071
220212102,25.696,-41.748,-10.071
220212112,25.696,-26.123,-6.470
220212200,15.503,-30.029,-6.470
220212210,15.503,-30.029,-6.470
220212220,6.653,-20.264,-0.732
220220000,6.653,-20.264,-0.732
220220010,6.653,-20.264,-0.732
220220021,1.221,-18.188,5.859
220220101,1.221,-18.188,5.859
220220111,-0.427,-26.062,13.733
220220121,-0.427,-26.062,13.733
220220201,-0.427,-26.062,13.733
220220212,0.000,-39.490,20.996
220220222,0.000,-39.490,20.996
220221002,0.000,-39.490,20.996
220221012,-0.122,-51.697,24.658
220221022,-0.122,-51.697,24.658
220221102,-0.183,-55.176,25.391
220221120,-0.183,-55.176,25.391
220221200,-0.183,-55.176,25.391
220221210,0.183,-49.500,25.024
220221220,0.183,-49.500,25.024
220222000,0.183,-49.500,23.682
220222010,-0.671,-37.842,23.682
220222021,-0.671,-37.842,23.682
220222101,-2.197,-22.644,19.958
220222111,-2.197,-22.644,19.958
220222121,-2.197,-22.644,19.958
220222201,-2.319,-8.728,15.686
220222212,-2.319,-8.728,15.686
220222222,-2.319,-0.610,11.780
221000002,-1.953,-0.610,11.780
221000012,-1.953,-0.610,11.780
221000022,-1.404,2.441,8.484
221000102,-1.404,2.441,8.484
221000112,-1.404,2.441,8.484
221000200,1.587,1.526,6.592
221000210,1.587,1.526,6.592
221000220,1.587,-14.099,7.141
221001000,5.798,-2.075,7.141
221001010,5.798,-2.075,7.141
221001020,9.399,-6.897,8.789
221001100,9.399,-6.897,8.789
221001110,9.399,-6.897,8.789
221001120,14.587,-11.536,9.094
221001201,14.587,-11.536,9.094
221001211,14.587,-11.536,9.094
221001221,20.386,-14.832,10.498
221002001,20.386,-14.832,10.498
221002011,22.339,-9.949,14.160
221002021,22.339,-9.949,14.160
221002101,22.339,-9.949,14.160
221002111,18.311,3.235,18.555
221002121,18.311,3.235,18.555
221002201,18.311,3.235,18.555
221002211,12.878,17.761,20.508
221002221,12.878,17.761,20.508
221010001,12.878,17.761,20.508
221010011,3.052,27.100,21.667
221010021,3.052,27.100,21.667
221010101,-2.747,33.447,20.203
221010111,-2.747,33.447,20.203
221010121,-2.747,33.447,20.203
221010201,-2.319,36.316,16.052
221010211,-2.319,36.316,16.052
221010221,-2.319,36.316,16.052
221011002,0.732,36.011,12.146
221011011,0.732,36.011,12.146
221011021,0.732,36.011,12.146
221011102,5.432,34.180,11.658
221011112,5.432,34.180,11.658
221011121,9.521,31.555,12.634
221011202,9.521,31.555,12.634
221011212,9.521,31.555,12.634
221011222,14.221,28.198,12.817
221012002,14.221,28.198,12.817
221012012,14.221,28.198,12.817
221012022,18.860,23.132,11.658
221012102,18.860,23.132,11.658
221012112,18.860,23.132,11.658
221012121,18.921,18.555,10.010
221012201,18.921,18.555,10.010
221012211,18.921,18.555,10.010
221012221,14.465,15.869,8.179
221020002,14.465,15.869,8.179
221020012,7.507,14.038,8.606
221020022,7.507,14.038,8.606
221020101,7.507,14.038,8.606
221020112,0.488,11.963,11.658
221020122,0.488,11.963,11.658
221020202,0.488,11.963,11.658
221020212,-5.432,9.155,13.672
221020222,-5.432,9.155,13.672
221021002,-5.432,9.155,13.672
221021012,-9.338,6.897,12.573
221021022,-9.338,6.897,12.573
221021102,-12.268,8.179,9.216
221021112,-12.268,8.179,9.216
221021122,-12.268,8.179,9.216
221021202,-15.198,14.099,6.042
221021220,-15.198,14.099,6.042
221022000,-15.198,14.099,6.042
221022010,-16.785,22.400,3.296
221022020,-16.785,22.400,3.296
221022100,-16.785,30.029,0.305
221022110,-15.869,30.029,0.305
221022120,-15.869,30.029,0.305
221022200,-11.169,34.607,-1.892
221022210,-11.169,34.607,-1.892
221022220,-11.169,34.607,-1.892
221100001,-4.700,34.607,-2.563
221100011,-4.700,34.607,-2.563
221100021,-4.700,31.128,-2.502
221100101,1.953,31.128,-2.502
221100111,1.953,31.128,-2.502
221100121,6.409,25.635,-1.709
221100201,6.409,25.635,-1.709
221100212,6.409,25.635,-1.709
221100222,7.812,19.165,0.488
221101002,7.812,19.165,0.488
221101012,7.812,19.165,0.488
221101022,7.141,12.756,3.113
221101102,7.141,12.756,3.113
221101112,4.578,6.287,5.371
221101122,4.578,6.287,5.371
221101202,4.578,6.287,5.371
221101212,1.770,0.732,6.714
221101222,1.770,0.732,6.714
221102002,1.770,0.732,6.714
221102012,-0.183,-3.784,7.080
221102022,-0.183,-3.784,7.080
221102102,-0.183,-3.784,7.080
221102112,0.122,-6.775,5.615
221102122,0.122,-6.775,5.615
221102202,1.709,-6.226,2.380
221102220,1.709,-6.226,2.380
221110000,1.709,-6.226,2.380
221110010,4.456,-3.540,-1.526
221110020,4.456,-3.540,-1.526
221110100,4.456,-3.540,-1.526
221110110,7.202,-0.122,-6.592
221110121,7.202,-0.122,-6.592
221110201,8.728,2.563,-12.634
221110211,8.728,2.563,-12.634
221110221,8.728,2.563,-12.634
221111001,8.667,4.395,-17.822
221111011,8.667,4.395,-17.822
221111021,8.667,4.395,-17.822
221111102,7.751,4.761,-21.179
221111112,7.751,4.761,-21.179
221111122,7.874,4.028,-22.644
221111202,7.874,4.028,-22.644
221111212,7.874,4.028,-22.644
221111222,9.644,1.343,-22.095
221112002,9.644,1.343,-22.095
221112012,9.644,1.343,-22.095
221112022,11.597,-3.479,-19.226
221112102,11.597,-3.479,-19.226
221112120,12.512,-9.216,-14.709
221112200,12.512,-9.216,-14.709
221112210,12.512,-9.216,-14.709
221112220,11.841,-14.282,-10.132
221120000,11.841,-14.282,-10.132
221120011,11.841,-14.282,-10.132
221120021,9.460,-16.968,-5.493
221120101,9.460,-16.968,-5.493
221120111,6.348,-16.663,-2.563
221120122,6.348,-16.663,-2.563
221120202,6.348,-16.663,-2.563
221120212,5.798,-15.381,-2.686
221120222,5.798,-15.381,-2.686
221121002,5.798,-15.259,-6.897
221121020,7.935,-15.259,-6.897
221121100,7.935,-15.259,-6.897
221121110,11.597,-14.648,-15.442
221121120,11.597,-14.648,-15.442
221121201,11.597,-14.648,-15.442
221121211,14.832,-9.888,-26.184
221121221,14.832,-9.888,-26.184
221122001,17.029,-2.258,-36.865
221122011,17.029,-2.258,-36.865
221122021,17.029,-2.258,-36.865
221122102,17.273,4.456,-45.593
221122112,17.273,4.456,-45.593
221122122,17.273,4.456,-49.438
221122202,16.785,8.423,-49.438
221122212,16.785,8.423,-49.438
221122222,16.968,8.789,-48.584
221200002,16.968,8.789,-48.584
221200012,16.968,8.789,-48.584
221200100,17.761,6.287,-44.739
221200110,17.761,6.287,-44.739
221200120,17.761,6.287,-44.739
